"Time (s)","Acceleration x (m/s^2)","Acceleration y (m/s^2)","Acceleration z (m/s^2)","Absolute acceleration (m/s^2)"
3.108985100E-2,-1.238285750E-1,-5.341976285E-1,9.781559944E0,9.796918677E0
3.353516300E-2,-1.238285750E-1,-5.437689424E-1,9.757631302E0,9.773555484E0
3.598141300E-2,-1.166501045E-1,-5.389832854E-1,9.767203331E0,9.782758871E0
3.842750700E-2,-1.166501045E-1,-5.413761139E-1,9.781559944E0,9.797224622E0
4.087375700E-2,-1.286142170E-1,-5.318048596E-1,9.783952713E0,9.799239191E0
4.332073600E-2,-1.094716340E-1,-5.413761139E-1,9.752845764E0,9.768473403E0
4.576604900E-2,-1.070788130E-1,-5.437689424E-1,9.781559944E0,9.797247852E0
4.821229900E-2,-1.070788130E-1,-5.533402562E-1,9.743274689E0,9.759562130E0
5.065927800E-2,-8.554340899E-2,-5.724828243E-1,9.757631302E0,9.774785056E0
5.310459000E-2,-1.118644550E-1,-5.700899959E-1,9.760024071E0,9.777299531E0
5.555084000E-2,-1.046859920E-1,-5.605186820E-1,9.762416840E0,9.779055317E0
5.799693400E-2,-9.750752151E-2,-5.533402562E-1,9.769596100E0,9.785739681E0
6.044318400E-2,-1.094716340E-1,-5.557330847E-1,9.760024071E0,9.776445835E0
6.289016300E-2,-1.238285750E-1,-5.461617708E-1,9.752845764E0,9.768911234E0
6.533547600E-2,-1.142572835E-1,-5.509474277E-1,9.757631302E0,9.773840925E0
6.778172600E-2,-1.022931710E-1,-5.629115105E-1,9.757631302E0,9.774390103E0
7.022870500E-2,-1.238285750E-1,-5.461617708E-1,9.771988869E0,9.788022918E0
7.267401700E-2,-9.272187948E-2,-5.629115105E-1,9.750452995E0,9.767128561E0
7.512026700E-2,-9.990034252E-2,-5.653043389E-1,9.762416840E0,9.779280731E0
7.756636100E-2,-9.990034252E-2,-5.365904570E-1,9.755238533E0,9.770495803E0
8.001261100E-2,-9.990034252E-2,-5.365904570E-1,9.757631302E0,9.772884836E0
8.245959000E-2,-8.315058798E-2,-5.485545993E-1,9.748060226E0,9.763836559E0
8.490490300E-2,-1.118644550E-1,-5.437689424E-1,9.740881920E0,9.756688931E0
8.735115300E-2,-1.046859920E-1,-5.605186820E-1,9.755238533E0,9.771889233E0
8.979813200E-2,-1.046859920E-1,-5.653043389E-1,9.757631302E0,9.774553533E0
9.224344400E-2,-8.793623000E-2,-5.629115105E-1,9.757631302E0,9.774250394E0
9.468969400E-2,-1.070788130E-1,-5.653043389E-1,9.738489151E0,9.755470558E0
9.713578800E-2,-9.990034252E-2,-5.485545993E-1,9.752845764E0,9.768771301E0
9.958203800E-2,-1.094716340E-1,-5.485545993E-1,9.738489151E0,9.754540847E0
1.020290170E-1,-1.046859920E-1,-5.533402562E-1,9.745667458E0,9.761924953E0
1.044743300E-1,-1.262213886E-1,-5.676971674E-1,9.757631302E0,9.774946575E0
1.069205800E-1,-1.214357466E-1,-5.605186820E-1,9.755238533E0,9.772083026E0
1.093675070E-1,-1.142572835E-1,-5.509474277E-1,9.755238533E0,9.771452125E0
1.118128710E-1,-1.094716340E-1,-5.413761139E-1,9.745667458E0,9.761306589E0
1.142590690E-1,-9.990034252E-2,-5.605186820E-1,9.767203331E0,9.783783633E0
1.167052670E-1,-1.142572835E-1,-5.724828243E-1,9.760024071E0,9.777467012E0
1.191514650E-1,-9.272187948E-2,-5.605186820E-1,9.731310844E0,9.747881272E0
1.215984440E-1,-1.118644550E-1,-5.653043389E-1,9.736096382E0,9.753135671E0
1.240437570E-1,-1.238285750E-1,-5.629115105E-1,9.745667458E0,9.762696199E0
1.264899550E-1,-9.032905847E-2,-5.892325640E-1,9.769596100E0,9.787765951E0
1.289369340E-1,-1.357926875E-1,-5.653043389E-1,9.764810562E0,9.782102737E0
1.313822990E-1,-1.070788130E-1,-5.772684813E-1,9.764810562E0,9.782444995E0
1.338284960E-1,-1.357926875E-1,-5.772684813E-1,9.774381638E0,9.792354924E0
1.362746940E-1,-1.286142170E-1,-5.676971674E-1,9.748060226E0,9.765423691E0
1.387208920E-1,-1.286142170E-1,-5.844469070E-1,9.750452995E0,9.768799999E0
1.411678190E-1,-1.429711580E-1,-5.700899959E-1,9.748060226E0,9.765762722E0
1.436131840E-1,-1.357926875E-1,-5.892325640E-1,9.760024071E0,9.778737369E0
1.460593820E-1,-1.166501045E-1,-5.772684813E-1,9.776774406E0,9.794496615E0
1.485063610E-1,-1.405783296E-1,-5.676971674E-1,9.776774406E0,9.794251382E0
1.509517260E-1,-1.381855011E-1,-5.605186820E-1,9.779167175E0,9.796192478E0
1.533979240E-1,-1.310070455E-1,-5.437689424E-1,9.769596100E0,9.785594283E0
1.558441210E-1,-1.357926875E-1,-5.605186820E-1,9.748060226E0,9.765106196E0
1.582902150E-1,-1.238285750E-1,-5.605186820E-1,9.757631302E0,9.774501692E0
1.607372460E-1,-1.286142170E-1,-5.557330847E-1,9.748060226E0,9.764735483E0
1.631826110E-1,-1.262213886E-1,-5.653043389E-1,9.752845764E0,9.770030774E0
1.656288090E-1,-1.094716340E-1,-5.748756528E-1,9.748060226E0,9.765610285E0
1.680757880E-1,-1.357926875E-1,-5.629115105E-1,9.750452995E0,9.767632397E0
1.705211010E-1,-1.118644550E-1,-5.533402562E-1,9.738489151E0,9.754838289E0
1.729673510E-1,-1.286142170E-1,-5.629115105E-1,9.752845764E0,9.769923822E0
1.754135490E-1,-1.238285750E-1,-5.724828243E-1,9.748060226E0,9.765641212E0
1.778596420E-1,-1.238285750E-1,-5.700899959E-1,9.755238533E0,9.772666727E0
1.803066740E-1,-1.286142170E-1,-5.581258535E-1,9.760024071E0,9.776815225E0
1.827520380E-1,-1.094716340E-1,-5.461617708E-1,9.771988869E0,9.787851816E0
1.851982360E-1,-1.190429255E-1,-5.485545993E-1,9.745667458E0,9.761819378E0
1.876452150E-1,-1.070788130E-1,-5.365904570E-1,9.740881920E0,9.756237788E0
1.900905280E-1,-1.094716340E-1,-5.629115105E-1,9.767203331E0,9.784023422E0
1.925367780E-1,-1.046859920E-1,-5.461617708E-1,9.769596100E0,9.785410558E0
1.949829760E-1,-1.118644550E-1,-5.509474277E-1,9.769596100E0,9.785758258E0
1.974290690E-1,-1.357926875E-1,-5.318048596E-1,9.769596100E0,9.785001994E0
1.998761010E-1,-1.262213886E-1,-5.461617708E-1,9.757631302E0,9.773719514E0
2.023214130E-1,-1.046859920E-1,-5.557330847E-1,9.733703613E0,9.750117151E0
2.047676630E-1,-9.990034252E-2,-5.461617708E-1,9.752845764E0,9.768637226E0
2.072146420E-1,-1.094716340E-1,-5.461617708E-1,9.755238533E0,9.771128674E0
2.096599550E-1,-1.094716340E-1,-5.437689424E-1,9.788738251E0,9.804441098E0
2.121062050E-1,-1.118644550E-1,-5.437689424E-1,9.738489151E0,9.754300040E0
2.145522990E-1,-1.046859920E-1,-5.461617708E-1,9.745667458E0,9.761520682E0
2.169985490E-1,-1.190429255E-1,-5.365904570E-1,9.733703613E0,9.749209536E0
2.194455280E-1,-1.046859920E-1,-5.557330847E-1,9.771988869E0,9.788338208E0
2.218908400E-1,-9.990034252E-2,-5.485545993E-1,9.748060226E0,9.763993568E0
2.243370900E-1,-9.990034252E-2,-5.509474277E-1,9.745667458E0,9.761739463E0
2.267840690E-1,-9.750752151E-2,-5.533402562E-1,9.745667458E0,9.761850611E0
2.292293820E-1,-9.750752151E-2,-5.605186820E-1,9.743274689E0,9.759871442E0
2.316756320E-1,-1.070788130E-1,-5.509474277E-1,9.745667458E0,9.761815565E0
2.341217260E-1,-1.046859920E-1,-5.581258535E-1,9.728918076E0,9.745476415E0
2.365679760E-1,-1.238285750E-1,-5.581258535E-1,9.743274689E0,9.760032769E0
2.390149550E-1,-1.070788130E-1,-5.509474277E-1,9.755238533E0,9.771370824E0
2.414602670E-1,-9.272187948E-2,-5.533402562E-1,9.779167175E0,9.795248513E0
2.439065170E-1,-8.075776696E-2,-5.629115105E-1,9.767203331E0,9.783744278E0
2.463534960E-1,-1.070788130E-1,-5.365904570E-1,9.769596100E0,9.784906905E0
2.487988090E-1,-1.022931710E-1,-5.557330847E-1,9.748060226E0,9.764424270E0
2.512450590E-1,-1.046859920E-1,-5.509474277E-1,9.740881920E0,9.757011981E0
2.536911530E-1,-1.310070455E-1,-5.653043389E-1,9.767203331E0,9.784426031E0
2.561374030E-1,-1.333998591E-1,-5.437689424E-1,9.762416840E0,9.778459119E0
2.585843820E-1,-1.262213886E-1,-5.533402562E-1,9.736096382E0,9.752624777E0
2.610296940E-1,-1.333998591E-1,-5.437689424E-1,9.757631302E0,9.773681436E0
2.634759440E-1,-1.142572835E-1,-5.581258535E-1,9.733703613E0,9.750361287E0
2.659229240E-1,-1.310070455E-1,-5.365904570E-1,9.750452995E0,9.766085489E0
2.683682360E-1,-1.166501045E-1,-5.389832854E-1,9.774381638E0,9.789925772E0
2.708144860E-1,-1.190429255E-1,-5.413761139E-1,9.738489151E0,9.754251907E0
2.732605800E-1,-1.333998591E-1,-5.629115105E-1,9.757631302E0,9.774765139E0
2.757068300E-1,-1.214357466E-1,-5.557330847E-1,9.755238533E0,9.771809696E0
2.781538090E-1,-1.333998591E-1,-5.485545993E-1,9.736096382E0,9.752449971E0
2.805991210E-1,-1.238285750E-1,-5.772684813E-1,9.779167175E0,9.796973158E0
2.830453710E-1,-1.286142170E-1,-5.629115105E-1,9.764810562E0,9.781867731E0
2.854923510E-1,-1.333998591E-1,-5.629115105E-1,9.745667458E0,9.762822291E0
2.879376630E-1,-1.357926875E-1,-5.557330847E-1,9.757631302E0,9.774387323E0
2.903839130E-1,-1.477568001E-1,-5.653043389E-1,9.757631302E0,9.775109702E0
2.928300070E-1,-1.214357466E-1,-5.676971674E-1,9.779167175E0,9.796383892E0
2.952762570E-1,-1.286142170E-1,-5.676971674E-1,9.767203331E0,9.784532825E0
2.977232360E-1,-1.142572835E-1,-5.724828243E-1,9.745667458E0,9.763136049E0
3.001685490E-1,-1.190429255E-1,-5.724828243E-1,9.755238533E0,9.772747139E0
3.026147990E-1,-9.990034252E-2,-5.509474277E-1,9.771988869E0,9.788017654E0
3.050617260E-1,-1.166501045E-1,-5.653043389E-1,9.774381638E0,9.791410146E0
3.075070900E-1,-1.142572835E-1,-5.629115105E-1,9.769596100E0,9.786466781E0
3.099532880E-1,-1.262213886E-1,-5.533402562E-1,9.750452995E0,9.766957095E0
3.123994860E-1,-1.070788130E-1,-5.676971674E-1,9.760024071E0,9.777106720E0
3.148456840E-1,-1.166501045E-1,-5.748756528E-1,9.733703613E0,9.751362740E0
3.172926630E-1,-1.094716340E-1,-5.653043389E-1,9.743274689E0,9.760274314E0
3.197379760E-1,-1.262213886E-1,-5.772684813E-1,9.762416840E0,9.780283906E0
3.221841740E-1,-1.405783296E-1,-5.748756528E-1,9.750452995E0,9.768396895E0
3.246311530E-1,-1.214357466E-1,-5.748756528E-1,9.760024071E0,9.777693926E0
3.270765170E-1,-1.070788130E-1,-5.581258535E-1,9.776774406E0,9.793277701E0
3.295227150E-1,-1.214357466E-1,-5.413761139E-1,9.752845764E0,9.768614806E0
3.319689130E-1,-1.022931710E-1,-5.629115105E-1,9.783952713E0,9.800666505E0
3.344151110E-1,-1.022931710E-1,-5.509474277E-1,9.762416840E0,9.778486054E0
3.368620380E-1,-1.214357466E-1,-5.700899959E-1,9.736096382E0,9.753528695E0
3.393074030E-1,-1.190429255E-1,-5.748756528E-1,9.728918076E0,9.746614805E0
3.417536010E-1,-1.070788130E-1,-5.365904570E-1,9.743274689E0,9.758626791E0
3.442005800E-1,-1.357926875E-1,-5.341976285E-1,9.757631302E0,9.773186552E0
3.466459440E-1,-1.046859920E-1,-5.557330847E-1,9.738489151E0,9.754894636E0
3.490921420E-1,-9.272187948E-2,-5.653043389E-1,9.752845764E0,9.769655411E0
3.515383400E-1,-9.272187948E-2,-5.485545993E-1,9.748060226E0,9.763922761E0
3.539844340E-1,-1.046859920E-1,-5.605186820E-1,9.738489151E0,9.755168440E0
3.564314650E-1,-8.315058798E-2,-5.461617708E-1,9.755238533E0,9.770869231E0
3.588768300E-1,-9.511470050E-2,-5.533402562E-1,9.762416840E0,9.778548706E0
3.613230280E-1,-1.070788130E-1,-5.365904570E-1,9.769596100E0,9.784906905E0
3.637700070E-1,-1.094716340E-1,-5.437689424E-1,9.760024071E0,9.775773042E0
3.662153190E-1,-9.272187948E-2,-5.485545993E-1,9.740881920E0,9.756756124E0
3.686615690E-1,-8.793623000E-2,-5.485545993E-1,9.740881920E0,9.756711818E0
3.711077670E-1,-9.750752151E-2,-5.461617708E-1,9.757631302E0,9.773390866E0
3.735538610E-1,-1.094716340E-1,-5.461617708E-1,9.760024071E0,9.775906433E0
3.760008920E-1,-9.750752151E-2,-5.294120312E-1,9.757631302E0,9.772469158E0
3.784462570E-1,-1.166501045E-1,-5.485545993E-1,9.776774406E0,9.792846225E0
3.808924550E-1,-9.272187948E-2,-5.389832854E-1,9.757631302E0,9.772945766E0
3.833394340E-1,-1.118644550E-1,-5.437689424E-1,9.757631302E0,9.773411223E0
3.857847460E-1,-1.046859920E-1,-5.413761139E-1,9.783952713E0,9.799478453E0
3.882309960E-1,-1.310070455E-1,-5.198407173E-1,9.748060226E0,9.762790349E0
3.906771940E-1,-1.070788130E-1,-5.461617708E-1,9.745667458E0,9.761546637E0
3.931232880E-1,-1.166501045E-1,-5.509474277E-1,9.745667458E0,9.761925246E0
3.955703190E-1,-1.238285750E-1,-5.581258535E-1,9.752845764E0,9.769587426E0
3.980156320E-1,-1.142572835E-1,-5.509474277E-1,9.760024071E0,9.776229726E0
4.004618820E-1,-1.214357466E-1,-5.509474277E-1,9.769596100E0,9.785872351E0
4.029088610E-1,-9.750752151E-2,-5.341976285E-1,9.752845764E0,9.767951439E0
4.053541740E-1,-1.070788130E-1,-5.485545993E-1,9.760024071E0,9.776013906E0
4.078004240E-1,-1.142572835E-1,-5.461617708E-1,9.755238533E0,9.771183462E0
4.102465170E-1,-1.166501045E-1,-5.629115105E-1,9.745667458E0,9.762607787E0
4.126927670E-1,-1.094716340E-1,-5.557330847E-1,9.752845764E0,9.769279595E0
4.151397460E-1,-1.046859920E-1,-5.557330847E-1,9.748060226E0,9.764449631E0
4.175850590E-1,-1.070788130E-1,-5.413761139E-1,9.781559944E0,9.797115336E0
4.200313090E-1,-1.357926875E-1,-5.461617708E-1,9.764810562E0,9.781015165E0
4.224782880E-1,-1.238285750E-1,-5.413761139E-1,9.745667458E0,9.761478157E0
4.249236010E-1,-1.453639716E-1,-5.509474277E-1,9.752845764E0,9.769476662E0
4.273698510E-1,-1.310070455E-1,-5.629115105E-1,9.757631302E0,9.774732776E0
4.298159440E-1,-1.381855011E-1,-5.724828243E-1,9.781559944E0,9.799272767E0
4.322621940E-1,-1.214357466E-1,-5.557330847E-1,9.769596100E0,9.786142951E0
4.347091740E-1,-1.453639716E-1,-5.844469070E-1,9.748060226E0,9.766646664E0
4.371544860E-1,-1.238285750E-1,-5.533402562E-1,9.764810562E0,9.781259851E0
4.396007360E-1,-1.405783296E-1,-5.581258535E-1,9.769596100E0,9.786535377E0
4.420477150E-1,-1.405783296E-1,-5.581258535E-1,9.769596100E0,9.786535377E0
4.444930280E-1,-1.190429255E-1,-5.748756528E-1,9.760024071E0,9.777664501E0
4.469392780E-1,-1.429711580E-1,-5.676971674E-1,9.748060226E0,9.765623329E0
4.493853710E-1,-1.094716340E-1,-5.748756528E-1,9.757631302E0,9.775164177E0
4.518316210E-1,-1.333998591E-1,-5.772684813E-1,9.731310844E0,9.749330499E0
4.542786010E-1,-1.525424421E-1,-5.820540786E-1,9.769596100E0,9.788108300E0
4.567239130E-1,-1.501496136E-1,-5.700899959E-1,9.779167175E0,9.796920851E0
4.591701630E-1,-1.381855011E-1,-5.653043389E-1,9.769596100E0,9.786913312E0
4.616171420E-1,-1.118644550E-1,-5.700899959E-1,9.767203331E0,9.784466116E0
4.640624550E-1,-1.405783296E-1,-5.820540786E-1,9.769596100E0,9.787929156E0
4.665087050E-1,-1.118644550E-1,-5.820540786E-1,9.748060226E0,9.766062604E0
4.689547990E-1,-1.142572835E-1,-5.700899959E-1,9.762416840E0,9.779715736E0
4.714010490E-1,-1.310070455E-1,-5.700899959E-1,9.757631302E0,9.775148801E0
4.738480280E-1,-1.094716340E-1,-5.844469070E-1,9.748060226E0,9.766178393E0
4.762933400E-1,-1.214357466E-1,-5.700899959E-1,9.762416840E0,9.779802237E0
4.787395900E-1,-1.070788130E-1,-5.509474277E-1,9.767203331E0,9.783315892E0
4.811865690E-1,-1.046859920E-1,-5.605186820E-1,9.769596100E0,9.786222371E0
4.836318820E-1,-1.142572835E-1,-5.653043389E-1,9.750452995E0,9.767494937E0
4.860780800E-1,-9.990034252E-2,-5.629115105E-1,9.769596100E0,9.786309693E0
4.885242780E-1,-1.070788130E-1,-5.533402562E-1,9.760024071E0,9.776283607E0
4.909704760E-1,-9.750752151E-2,-5.509474277E-1,9.771988869E0,9.787993524E0
4.934174550E-1,-8.793623000E-2,-5.557330847E-1,9.738489151E0,9.754729263E0
4.958627670E-1,-1.094716340E-1,-5.581258535E-1,9.745667458E0,9.762249879E0
4.983090170E-1,-1.094716340E-1,-5.485545993E-1,9.745667458E0,9.761707350E0
5.007559440E-1,-9.032905847E-2,-5.700899959E-1,9.748060226E0,9.765133902E0
5.032013090E-1,-1.070788130E-1,-5.629115105E-1,9.760024071E0,9.776830013E0
5.056475070E-1,-1.046859920E-1,-5.581258535E-1,9.767203331E0,9.783696875E0
5.080937050E-1,-8.315058798E-2,-5.461617708E-1,9.757631302E0,9.773258173E0
5.105399030E-1,-1.094716340E-1,-5.533402562E-1,9.740881920E0,9.757199909E0
5.129868300E-1,-9.990034252E-2,-5.413761139E-1,9.738489151E0,9.754037068E0
5.154321940E-1,-9.511470050E-2,-5.629115105E-1,9.760024071E0,9.776706298E0
5.178783920E-1,-8.793623000E-2,-5.485545993E-1,9.757631302E0,9.773434072E0
5.203253710E-1,-1.070788130E-1,-5.485545993E-1,9.760024071E0,9.776013906E0
5.227707360E-1,-1.070788130E-1,-5.557330847E-1,9.760024071E0,9.776419334E0
5.252169340E-1,-1.118644550E-1,-5.629115105E-1,9.740881920E0,9.757774521E0
5.276631320E-1,-1.046859920E-1,-5.533402562E-1,9.755238533E0,9.771480104E0
5.301092260E-1,-9.032905847E-2,-5.485545993E-1,9.740881920E0,9.756733678E0
5.325562570E-1,-1.046859920E-1,-5.629115105E-1,9.745667458E0,9.762472162E0
5.350016210E-1,-1.190429255E-1,-5.437689424E-1,9.740881920E0,9.756773875E0
5.374478190E-1,-1.166501045E-1,-5.509474277E-1,9.748060226E0,9.764314031E0
5.398947990E-1,-1.094716340E-1,-5.437689424E-1,9.752845764E0,9.768606308E0
5.423401630E-1,-1.094716340E-1,-5.389832854E-1,9.755238533E0,9.770730058E0
5.447863610E-1,-1.166501045E-1,-5.485545993E-1,9.757631302E0,9.773734599E0
5.472325590E-1,-1.118644550E-1,-5.389832854E-1,9.750452995E0,9.765979226E0
5.496786530E-1,-9.990034252E-2,-5.389832854E-1,9.760024071E0,9.775405512E0
5.521256840E-1,-1.262213886E-1,-5.365904570E-1,9.740881920E0,9.756466662E0
5.545710490E-1,-1.190429255E-1,-5.270192027E-1,9.762416840E0,9.777356647E0
5.570172460E-1,-1.142572835E-1,-5.437689424E-1,9.752845764E0,9.768661110E0
5.594642260E-1,-1.214357466E-1,-5.581258535E-1,9.769596100E0,9.786279122E0
5.619095900E-1,-1.190429255E-1,-5.365904570E-1,9.760024071E0,9.775488243E0
5.643557880E-1,-1.190429255E-1,-5.653043389E-1,9.757631302E0,9.774717839E0
5.668019860E-1,-1.214357466E-1,-5.533402562E-1,9.779167175E0,9.795562399E0
5.692480800E-1,-1.166501045E-1,-5.629115105E-1,9.760024071E0,9.776939525E0
5.716951110E-1,-1.142572835E-1,-5.389832854E-1,9.731310844E0,9.746895324E0
5.741404240E-1,-1.238285750E-1,-5.485545993E-1,9.779167175E0,9.795323185E0
5.765866740E-1,-1.214357466E-1,-5.485545993E-1,9.783952713E0,9.800070892E0
5.790336530E-1,-1.190429255E-1,-5.581258535E-1,9.740881920E0,9.757584551E0
5.814789650E-1,-1.190429255E-1,-5.629115105E-1,9.721739769E0,9.738750676E0
5.839252150E-1,-1.238285750E-1,-5.653043389E-1,9.745667458E0,9.762834461E0
5.863714130E-1,-1.238285750E-1,-5.581258535E-1,9.764810562E0,9.781531746E0
5.888175070E-1,-1.046859920E-1,-5.509474277E-1,9.731310844E0,9.747456744E0
5.912645380E-1,-1.190429255E-1,-5.485545993E-1,9.750452995E0,9.766597001E0
5.937098510E-1,-1.310070455E-1,-5.676971674E-1,9.762416840E0,9.779786576E0
5.961561010E-1,-1.190429255E-1,-5.772684813E-1,9.745667458E0,9.763475012E0
5.986030800E-1,-1.333998591E-1,-5.748756528E-1,9.760024071E0,9.777849835E0
6.010483920E-1,-1.477568001E-1,-5.653043389E-1,9.764810562E0,9.782276135E0
6.034946420E-1,-1.333998591E-1,-5.509474277E-1,9.738489151E0,9.754973579E0
6.059407360E-1,-1.333998591E-1,-5.676971674E-1,9.771988869E0,9.789373935E0
6.083869860E-1,-1.286142170E-1,-5.629115105E-1,9.783952713E0,9.800976567E0
6.108339650E-1,-1.262213886E-1,-5.557330847E-1,9.767203331E0,9.783814798E0
6.132792780E-1,-1.333998591E-1,-5.533402562E-1,9.740881920E0,9.757497709E0
6.157255280E-1,-1.310070455E-1,-5.724828243E-1,9.738489151E0,9.756181137E0
6.181725070E-1,-1.214357466E-1,-5.676971674E-1,9.760024071E0,9.777274496E0
6.206178190E-1,-1.262213886E-1,-5.724828243E-1,9.771988869E0,9.789557440E0
6.230640690E-1,-1.262213886E-1,-5.676971674E-1,9.748060226E0,9.765392470E0
6.255101630E-1,-1.310070455E-1,-5.653043389E-1,9.745667458E0,9.762928149E0
6.279564130E-1,-1.190429255E-1,-5.629115105E-1,9.762416840E0,9.779356990E0
6.304033920E-1,-1.142572835E-1,-5.557330847E-1,9.750452995E0,9.766945664E0
6.328487050E-1,-1.070788130E-1,-5.676971674E-1,9.779167175E0,9.796216443E0
6.352949550E-1,-1.118644550E-1,-5.605186820E-1,9.771988869E0,9.788690479E0
6.377419340E-1,-8.793623000E-2,-5.533402562E-1,9.745667458E0,9.761759699E0
6.401872460E-1,-1.142572835E-1,-5.533402562E-1,9.748060226E0,9.764421045E0
6.426334960E-1,-1.190429255E-1,-5.413761139E-1,9.738489151E0,9.754251907E0
6.450795900E-1,-1.214357466E-1,-5.485545993E-1,9.750452995E0,9.766626460E0
6.475258400E-1,-1.142572835E-1,-5.318048596E-1,9.755238533E0,9.770391495E0
6.499728190E-1,-1.310070455E-1,-5.485545993E-1,9.762416840E0,9.778694061E0
6.524181320E-1,-1.070788130E-1,-5.461617708E-1,9.752845764E0,9.768713275E0
6.548643820E-1,-1.166501045E-1,-5.389832854E-1,9.731310844E0,9.746923667E0
6.573113610E-1,-1.118644550E-1,-5.461617708E-1,9.762416840E0,9.778322396E0
6.597566740E-1,-1.118644550E-1,-5.557330847E-1,9.736096382E0,9.752585589E0
6.622028710E-1,-1.190429255E-1,-5.270192027E-1,9.740881920E0,9.755854705E0
6.646490690E-1,-1.094716340E-1,-5.533402562E-1,9.764810562E0,9.781088630E0
6.670952670E-1,-1.118644550E-1,-5.485545993E-1,9.760024071E0,9.776067495E0
6.695422460E-1,-1.022931710E-1,-5.341976285E-1,9.769596100E0,9.784724777E0
6.719875590E-1,-1.094716340E-1,-5.629115105E-1,9.762416840E0,9.779245163E0
6.744338090E-1,-1.046859920E-1,-5.509474277E-1,9.738489151E0,9.754623169E0
6.768807360E-1,-1.046859920E-1,-5.629115105E-1,9.743274689E0,9.760083513E0
6.793261010E-1,-9.750752151E-2,-5.557330847E-1,9.764810562E0,9.781097704E0
6.817722990E-1,-1.214357466E-1,-5.605186820E-1,9.757631302E0,9.774471671E0
6.842184960E-1,-1.094716340E-1,-5.461617708E-1,9.760024071E0,9.775906433E0
6.866646940E-1,-1.142572835E-1,-5.748756528E-1,9.769596100E0,9.787162239E0
6.891116740E-1,-1.166501045E-1,-5.557330847E-1,9.757631302E0,9.774140122E0
6.915569860E-1,-1.118644550E-1,-5.389832854E-1,9.740881920E0,9.756423382E0
6.940032360E-1,-9.990034252E-2,-5.485545993E-1,9.760024071E0,9.775937913E0
6.964501630E-1,-9.750752151E-2,-5.533402562E-1,9.736096382E0,9.752295418E0
6.988955280E-1,-1.214357466E-1,-5.557330847E-1,9.750452995E0,9.767032278E0
7.013417260E-1,-1.070788130E-1,-5.485545993E-1,9.764810562E0,9.780792572E0
7.037879240E-1,-1.070788130E-1,-5.581258535E-1,9.750452995E0,9.767000766E0
7.062340170E-1,-1.094716340E-1,-5.700899959E-1,9.752845764E0,9.770106813E0
7.086810490E-1,-1.166501045E-1,-5.629115105E-1,9.757631302E0,9.774550897E0
7.111264130E-1,-1.094716340E-1,-5.676971674E-1,9.757631302E0,9.774744638E0
7.135726110E-1,-1.238285750E-1,-5.820540786E-1,9.752845764E0,9.770983623E0
7.160195900E-1,-1.333998591E-1,-5.796613097E-1,9.740881920E0,9.759025737E0
7.184649550E-1,-1.333998591E-1,-5.724828243E-1,9.764810562E0,9.782487282E0
7.209111530E-1,-1.190429255E-1,-5.796613097E-1,9.740881920E0,9.758840045E0
7.233573510E-1,-1.166501045E-1,-5.629115105E-1,9.762416840E0,9.779328155E0
7.258034440E-1,-1.214357466E-1,-5.748756528E-1,9.757631302E0,9.775305483E0
7.282504760E-1,-1.549352705E-1,-5.772684813E-1,9.738489151E0,9.756813762E0
7.306958400E-1,-1.070788130E-1,-5.748756528E-1,9.752845764E0,9.770360709E0
7.331420380E-1,-1.238285750E-1,-5.988038778E-1,9.752845764E0,9.771995707E0
7.355890170E-1,-1.214357466E-1,-5.724828243E-1,9.748060226E0,9.765611164E0
7.380343820E-1,-1.429711580E-1,-5.605186820E-1,9.733703613E0,9.750877293E0
7.404805800E-1,-1.142572835E-1,-5.581258535E-1,9.760024071E0,9.776636899E0
7.429267780E-1,-1.238285750E-1,-5.605186820E-1,9.750452995E0,9.767335784E0
7.453728710E-1,-1.166501045E-1,-5.676971674E-1,9.779167175E0,9.796325738E0
7.478199030E-1,-1.286142170E-1,-5.796613097E-1,9.776774406E0,9.794787728E0
7.502652670E-1,-1.310070455E-1,-5.605186820E-1,9.750452995E0,9.767429429E0
7.527114650E-1,-1.190429255E-1,-5.605186820E-1,9.748060226E0,9.764887638E0
7.551584440E-1,-1.405783296E-1,-5.557330847E-1,9.755238533E0,9.772066330E0
7.576037570E-1,-1.405783296E-1,-5.676971674E-1,9.755238533E0,9.772754022E0
7.600500070E-1,-1.070788130E-1,-5.557330847E-1,9.760024071E0,9.776419334E0
7.624962050E-1,-1.214357466E-1,-5.557330847E-1,9.745667458E0,9.762254867E0
7.649422990E-1,-1.333998591E-1,-5.629115105E-1,9.762416840E0,9.779542292E0
7.673893300E-1,-1.333998591E-1,-5.533402562E-1,9.743274689E0,9.759886404E0
7.698346420E-1,-1.310070455E-1,-5.700899959E-1,9.760024071E0,9.777537283E0
7.722808920E-1,-1.166501045E-1,-5.485545993E-1,9.757631302E0,9.773734599E0
7.747278710E-1,-1.310070455E-1,-5.629115105E-1,9.755238533E0,9.772344194E0
7.771731840E-1,-1.214357466E-1,-5.413761139E-1,9.731310844E0,9.747114726E0
7.796194340E-1,-1.118644550E-1,-5.557330847E-1,9.762416840E0,9.778861665E0
7.820655280E-1,-1.262213886E-1,-5.509474277E-1,9.755238533E0,9.771599344E0
7.845117780E-1,-1.333998591E-1,-5.509474277E-1,9.738489151E0,9.754973579E0
7.869587570E-1,-9.990034252E-2,-5.318048596E-1,9.757631302E0,9.772623246E0
7.894040690E-1,-1.142572835E-1,-5.318048596E-1,9.786345482E0,9.801450353E0
7.918503190E-1,-1.094716340E-1,-5.437689424E-1,9.757631302E0,9.773384129E0
7.942972990E-1,-1.094716340E-1,-5.365904570E-1,9.752845764E0,9.768209348E0
7.967426110E-1,-1.070788130E-1,-5.150550604E-1,9.774381638E0,9.788528183E0
7.991888610E-1,-1.070788130E-1,-5.126622319E-1,9.767203331E0,9.781234551E0
8.016349550E-1,-1.094716340E-1,-5.557330847E-1,9.760024071E0,9.776445835E0
8.040812050E-1,-1.190429255E-1,-5.461617708E-1,9.745667458E0,9.761685208E0
8.065281840E-1,-9.511470050E-2,-5.461617708E-1,9.745667458E0,9.761422728E0
8.089734960E-1,-1.166501045E-1,-5.581258535E-1,9.762416840E0,9.779053853E0
8.114197460E-1,-1.070788130E-1,-5.318048596E-1,9.748060226E0,9.763142960E0
8.138667260E-1,-9.511470050E-2,-5.437689424E-1,9.771988869E0,9.787568540E0
8.163120380E-1,-1.022931710E-1,-5.485545993E-1,9.743274689E0,9.759240631E0
8.187582880E-1,-1.046859920E-1,-5.533402562E-1,9.762416840E0,9.778646488E0
8.212043820E-1,-1.070788130E-1,-5.557330847E-1,9.752845764E0,9.769253074E0
8.236506320E-1,-8.554340899E-2,-5.605186820E-1,9.743274689E0,9.759759245E0
8.260976110E-1,-9.990034252E-2,-5.653043389E-1,9.755238533E0,9.772114813E0
8.285429240E-1,-1.070788130E-1,-5.557330847E-1,9.771988869E0,9.788364091E0
8.309891740E-1,-9.511470050E-2,-5.557330847E-1,9.769596100E0,9.785851727E0
8.334361530E-1,-9.750752151E-2,-5.533402562E-1,9.781559944E0,9.797683813E0
8.358814650E-1,-1.070788130E-1,-5.653043389E-1,9.767203331E0,9.784134902E0
8.383277150E-1,-1.166501045E-1,-5.581258535E-1,9.760024071E0,9.776665156E0
8.407738090E-1,-1.238285750E-1,-5.700899959E-1,9.783952713E0,9.801329849E0
8.432200590E-1,-1.142572835E-1,-5.653043389E-1,9.743274689E0,9.760329164E0
8.456670380E-1,-1.166501045E-1,-5.629115105E-1,9.764810562E0,9.781717739E0
8.481123510E-1,-1.094716340E-1,-5.676971674E-1,9.743274689E0,9.760413197E0
8.505586010E-1,-1.142572835E-1,-5.796613097E-1,9.748060226E0,9.765947990E0
8.530055280E-1,-1.070788130E-1,-5.796613097E-1,9.757631302E0,9.775420284E0
8.554508920E-1,-1.046859920E-1,-5.796613097E-1,9.760024071E0,9.777782788E0
8.578970900E-1,-1.142572835E-1,-5.796613097E-1,9.764810562E0,9.782667697E0
8.603432880E-1,-1.238285750E-1,-5.653043389E-1,9.764810562E0,9.781943970E0
8.627894860E-1,-1.405783296E-1,-5.748756528E-1,9.760024071E0,9.777950406E0
8.652364130E-1,-1.142572835E-1,-5.868397355E-1,9.757631302E0,9.775929839E0
8.676817780E-1,-1.262213886E-1,-5.820540786E-1,9.755238533E0,9.773402561E0
8.701279760E-1,-1.022931710E-1,-5.676971674E-1,9.752845764E0,9.769889685E0
8.725749550E-1,-1.262213886E-1,-5.724828243E-1,9.771988869E0,9.789557440E0
8.750203190E-1,-9.990034252E-2,-5.748756528E-1,9.752845764E0,9.770284673E0
8.774665170E-1,-1.142572835E-1,-5.940182209E-1,9.760024071E0,9.778751568E0
8.799127150E-1,-1.166501045E-1,-5.629115105E-1,9.748060226E0,9.764996405E0
8.823588090E-1,-1.477568001E-1,-5.581258535E-1,9.740881920E0,9.757977102E0
8.848058400E-1,-1.142572835E-1,-5.605186820E-1,9.752845764E0,9.769607792E0
8.872512050E-1,-1.238285750E-1,-5.820540786E-1,9.755238533E0,9.773371952E0
8.896974030E-1,-1.190429255E-1,-5.820540786E-1,9.764810562E0,9.782866834E0
8.921443820E-1,-1.214357466E-1,-5.533402562E-1,9.750452995E0,9.766896421E0
8.945897460E-1,-1.190429255E-1,-5.605186820E-1,9.762416840E0,9.779219548E0
8.970359440E-1,-1.286142170E-1,-5.533402562E-1,9.757631302E0,9.774154474E0
8.994821420E-1,-1.214357466E-1,-5.509474277E-1,9.762416840E0,9.778705040E0
9.019282360E-1,-1.142572835E-1,-5.509474277E-1,9.750452995E0,9.766674532E0
9.043752670E-1,-1.238285750E-1,-5.605186820E-1,9.769596100E0,9.786445865E0
9.068206320E-1,-1.214357466E-1,-5.629115105E-1,9.767203331E0,9.784164600E0
9.092668300E-1,-1.214357466E-1,-5.389832854E-1,9.760024071E0,9.775649313E0
9.117138090E-1,-1.453639716E-1,-5.485545993E-1,9.771988869E0,9.788452854E0
9.141591740E-1,-1.310070455E-1,-5.389832854E-1,9.764810562E0,9.780551679E0
9.166053710E-1,-1.214357466E-1,-5.365904570E-1,9.757631302E0,9.773128700E0
9.190515690E-1,-1.286142170E-1,-5.413761139E-1,9.752845764E0,9.768706681E0
9.214976630E-1,-1.238285750E-1,-5.389832854E-1,9.762416840E0,9.778068268E0
9.239446940E-1,-1.333998591E-1,-5.365904570E-1,9.757631302E0,9.773284681E0
9.263900590E-1,-1.262213886E-1,-5.389832854E-1,9.767203331E0,9.782877681E0
9.288362570E-1,-1.046859920E-1,-5.174478889E-1,9.762416840E0,9.776681135E0
9.312832360E-1,-1.214357466E-1,-5.437689424E-1,9.748060226E0,9.763969965E0
9.337285490E-1,-1.190429255E-1,-5.485545993E-1,9.764810562E0,9.780930870E0
9.361747990E-1,-1.238285750E-1,-5.270192027E-1,9.752845764E0,9.767859707E0
9.386209960E-1,-1.190429255E-1,-5.341976285E-1,9.743274689E0,9.758634125E0
9.410670900E-1,-1.094716340E-1,-5.341976285E-1,9.757631302E0,9.772856275E0
9.435141210E-1,-1.070788130E-1,-5.509474277E-1,9.757631302E0,9.773759643E0
9.459594860E-1,-1.094716340E-1,-5.341976285E-1,9.752845764E0,9.768078196E0
9.484056840E-1,-1.142572835E-1,-5.341976285E-1,9.760024071E0,9.775300082E0
9.508526630E-1,-1.118644550E-1,-5.485545993E-1,9.736096382E0,9.752179170E0
9.532979760E-1,-9.750752151E-2,-5.365904570E-1,9.743274689E0,9.758526461E0
9.557442260E-1,-1.094716340E-1,-5.341976285E-1,9.736096382E0,9.751354978E0
9.581904240E-1,-1.118644550E-1,-5.365904570E-1,9.752845764E0,9.768236457E0
9.606365170E-1,-9.511470050E-2,-5.461617708E-1,9.757631302E0,9.773367286E0
9.630835490E-1,-9.990034252E-2,-5.509474277E-1,9.750452995E0,9.766517125E0
9.655288610E-1,-1.046859920E-1,-5.629115105E-1,9.748060226E0,9.764860813E0
9.679751110E-1,-1.022931710E-1,-5.581258535E-1,9.762416840E0,9.778893133E0
9.704220900E-1,-1.046859920E-1,-5.509474277E-1,9.769596100E0,9.785678831E0
9.728674030E-1,-9.990034252E-2,-5.629115105E-1,9.740881920E0,9.757644697E0
9.753136530E-1,-8.554340899E-2,-5.557330847E-1,9.726525307E0,9.742764057E0
9.777597460E-1,-8.793623000E-2,-5.700899959E-1,9.767203331E0,9.784221803E0
9.802059960E-1,-1.070788130E-1,-5.796613097E-1,9.771988869E0,9.789751762E0
9.826529760E-1,-9.032905847E-2,-5.533402562E-1,9.740881920E0,9.757003913E0
9.850982880E-1,-1.118644550E-1,-5.605186820E-1,9.767203331E0,9.783913111E0
9.875445380E-1,-8.793623000E-2,-5.533402562E-1,9.743274689E0,9.759370875E0
9.899915170E-1,-1.118644550E-1,-5.748756528E-1,9.750452995E0,9.768025864E0
9.924368300E-1,-8.554340899E-2,-5.533402562E-1,9.757631302E0,9.773682609E0
9.948830800E-1,-9.511470050E-2,-5.653043389E-1,9.771988869E0,9.788788600E0
9.973291740E-1,-1.166501045E-1,-5.629115105E-1,9.748060226E0,9.764996405E0
9.997754240E-1,-9.990034252E-2,-5.700899959E-1,9.755238533E0,9.772392825E0
1.002222403E0,-1.094716340E-1,-5.844469070E-1,9.764810562E0,9.782897707E0
1.004667715E0,-1.142572835E-1,-5.700899959E-1,9.760024071E0,9.777327201E0
1.007113965E0,-1.286142170E-1,-5.509474277E-1,9.762416840E0,9.778796819E0
1.009560944E0,-1.214357466E-1,-5.533402562E-1,9.745667458E0,9.762118944E0
1.012006257E0,-1.166501045E-1,-5.437689424E-1,9.769596100E0,9.785412606E0
1.014452507E0,-1.190429255E-1,-5.437689424E-1,9.755238533E0,9.771107139E0
1.016898601E0,-1.310070455E-1,-5.557330847E-1,9.752845764E0,9.769544647E0
1.019344851E0,-1.142572835E-1,-5.605186820E-1,9.786345482E0,9.803050230E0
1.021791830E0,-1.429711580E-1,-5.461617708E-1,9.755238533E0,9.771561404E0
1.024237142E0,-1.262213886E-1,-5.533402562E-1,9.764810562E0,9.781290436E0
1.026683392E0,-1.142572835E-1,-5.318048596E-1,9.771988869E0,9.787115897E0
1.029130371E0,-1.166501045E-1,-5.629115105E-1,9.750452995E0,9.767385025E0
1.031575684E0,-1.429711580E-1,-5.629115105E-1,9.750452995E0,9.767734831E0
1.034021882E0,-1.310070455E-1,-5.461617708E-1,9.752845764E0,9.769004864E0
1.036468080E0,-1.094716340E-1,-5.533402562E-1,9.755238533E0,9.771532547E0
1.038914278E0,-1.453639716E-1,-5.509474277E-1,9.748060226E0,9.764699275E0
1.041361257E0,-1.238285750E-1,-5.581258535E-1,9.755238533E0,9.771976096E0
1.043806569E0,-1.405783296E-1,-5.676971674E-1,9.750452995E0,9.767977066E0
1.046252819E0,-1.238285750E-1,-5.629115105E-1,9.750452995E0,9.767473394E0
1.048699746E0,-1.405783296E-1,-5.533402562E-1,9.779167175E0,9.795818411E0
1.051145111E0,-1.310070455E-1,-5.294120312E-1,9.762416840E0,9.777638902E0
1.053591309E0,-1.429711580E-1,-5.461617708E-1,9.752845764E0,9.769172633E0
1.056037507E0,-1.333998591E-1,-5.581258535E-1,9.755238533E0,9.772102068E0
1.058483705E0,-1.166501045E-1,-5.629115105E-1,9.738489151E0,9.755441946E0
1.060930632E0,-1.310070455E-1,-5.389832854E-1,9.750452995E0,9.766217253E0
1.063375996E0,-1.214357466E-1,-5.796613097E-1,9.764810562E0,9.782754172E0
1.065822194E0,-1.094716340E-1,-5.605186820E-1,9.760024071E0,9.776719035E0
1.068269174E0,-1.214357466E-1,-5.868397355E-1,9.750452995E0,9.768851577E0
1.070714538E0,-1.262213886E-1,-5.676971674E-1,9.762416840E0,9.779723639E0
1.073160736E0,-1.190429255E-1,-5.629115105E-1,9.745667458E0,9.762636672E0
1.075606934E0,-1.142572835E-1,-5.844469070E-1,9.767203331E0,9.785340762E0
1.078053132E0,-1.190429255E-1,-5.653043389E-1,9.767203331E0,9.784273152E0
1.080500059E0,-1.262213886E-1,-5.868397355E-1,9.731310844E0,9.749806330E0
1.082945424E0,-9.272187948E-2,-5.629115105E-1,9.750452995E0,9.767128561E0
1.085391621E0,-9.990034252E-2,-5.796613097E-1,9.733703613E0,9.751460062E0
1.087838601E0,-1.070788130E-1,-5.700899959E-1,9.748060226E0,9.765303203E0
1.090283965E0,-1.070788130E-1,-5.772684813E-1,9.760024071E0,9.777667137E0
1.092730163E0,-1.022931710E-1,-5.557330847E-1,9.762416840E0,9.778756859E0
1.095176361E0,-1.166501045E-1,-5.653043389E-1,9.733703613E0,9.750803160E0
1.097622455E0,-9.032905847E-2,-5.724828243E-1,9.745667458E0,9.762885338E0
1.100069486E0,-9.750752151E-2,-5.605186820E-1,9.762416840E0,9.778981105E0
1.102514851E0,-1.118644550E-1,-5.653043389E-1,9.745667458E0,9.762690041E0
1.104961049E0,-8.793623000E-2,-5.653043389E-1,9.760024071E0,9.776777160E0
1.107408028E0,-9.032905847E-2,-5.653043389E-1,9.743274689E0,9.760078381E0
1.109853340E0,-1.094716340E-1,-5.509474277E-1,9.750452995E0,9.766619718E0
1.112299590E0,-9.990034252E-2,-5.653043389E-1,9.764810562E0,9.781670327E0
1.114745788E0,-9.272187948E-2,-5.605186820E-1,9.752845764E0,9.769379665E0
1.117191882E0,-9.032905847E-2,-5.653043389E-1,9.755238533E0,9.772021652E0
1.119638913E0,-9.750752151E-2,-5.700899959E-1,9.767203331E0,9.784312507E0
1.122084278E0,-1.094716340E-1,-5.533402562E-1,9.745667458E0,9.761977447E0
1.124530476E0,-7.836493850E-2,-5.629115105E-1,9.762416840E0,9.778946415E0
1.126977455E0,-9.272187948E-2,-5.461617708E-1,9.748060226E0,9.763788619E0
1.129422767E0,-8.554340899E-2,-5.389832854E-1,9.767203331E0,9.782437404E0
1.131869017E0,-9.272187948E-2,-5.413761139E-1,9.764810562E0,9.780245946E0
1.134315215E0,-7.836493850E-2,-5.461617708E-1,9.755238533E0,9.770829677E0
1.136761309E0,-9.990034252E-2,-5.437689424E-1,9.762416840E0,9.778059485E0
1.139208340E0,-1.022931710E-1,-5.413761139E-1,9.752845764E0,9.768395594E0
1.141653653E0,-9.032905847E-2,-5.485545993E-1,9.750452995E0,9.766289219E0
1.144099903E0,-9.272187948E-2,-5.413761139E-1,9.757631302E0,9.773078024E0
1.146546882E0,-9.032905847E-2,-5.150550604E-1,9.755238533E0,9.769243568E0
1.148992194E0,-9.990034252E-2,-5.054838061E-1,9.750452995E0,9.764057946E0
1.151438444E0,-1.046859920E-1,-5.222335458E-1,9.750452995E0,9.764989536E0
1.153884642E0,-8.554340899E-2,-5.485545993E-1,9.745667458E0,9.761468333E0
1.156330736E0,-6.640082598E-2,-5.294120312E-1,9.728918076E0,9.743538017E0
1.158777767E0,-9.750752151E-2,-5.198407173E-1,9.771988869E0,9.786291869E0
1.161223080E0,-1.094716340E-1,-5.294120312E-1,9.757631302E0,9.772595856E0
1.163669330E0,-9.750752151E-2,-5.174478889E-1,9.767203331E0,9.781386453E0
1.166116309E0,-8.554340899E-2,-5.054838061E-1,9.769596100E0,9.783038358E0
1.168561621E0,-1.094716340E-1,-5.294120312E-1,9.740881920E0,9.755872166E0
1.171007871E0,-1.046859920E-1,-5.246263742E-1,9.764810562E0,9.779453835E0
1.173453965E0,-1.046859920E-1,-5.461617708E-1,9.767203331E0,9.783021657E0
1.175900215E0,-9.990034252E-2,-5.341976285E-1,9.748060226E0,9.763197497E0
1.178347194E0,-1.310070455E-1,-5.270192027E-1,9.743274689E0,9.758397089E0
1.180792507E0,-1.357926875E-1,-5.270192027E-1,9.757631302E0,9.772796811E0
1.183238757E0,-1.142572835E-1,-5.365904570E-1,9.740881920E0,9.756319215E0
1.185685736E0,-1.453639716E-1,-5.198407173E-1,9.767203331E0,9.782107440E0
1.188131049E0,-1.453639716E-1,-5.270192027E-1,9.762416840E0,9.777712538E0
1.190577299E0,-1.333998591E-1,-5.485545993E-1,9.767203331E0,9.783504923E0
1.193023392E0,-1.525424421E-1,-5.461617708E-1,9.779167175E0,9.795594546E0
1.195469642E0,-1.477568001E-1,-5.509474277E-1,9.757631302E0,9.774289937E0
1.197916621E0,-1.501496136E-1,-5.294120312E-1,9.752845764E0,9.768358230E0
1.200361934E0,-1.645065546E-1,-5.461617708E-1,9.752845764E0,9.769511533E0
1.202808184E0,-1.333998591E-1,-5.413761139E-1,9.774381638E0,9.790271703E0
1.205255163E0,-1.549352705E-1,-5.676971674E-1,9.750452995E0,9.768194236E0
1.207700476E0,-1.477568001E-1,-5.557330847E-1,9.750452995E0,9.767394993E0
1.210146726E0,-1.333998591E-1,-5.557330847E-1,9.745667458E0,9.762411023E0
1.212592819E0,-1.525424421E-1,-5.485545993E-1,9.757631302E0,9.774228868E0
1.215039069E0,-1.357926875E-1,-5.653043389E-1,9.760024071E0,9.777324711E0
1.217486049E0,-1.573280841E-1,-5.676971674E-1,9.781559944E0,9.799282991E0
1.219931361E0,-1.549352705E-1,-5.700899959E-1,9.762416840E0,9.780275563E0
1.222377611E0,-1.405783296E-1,-5.700899959E-1,9.745667458E0,9.763339545E0
1.224824538E0,-1.429711580E-1,-5.868397355E-1,9.750452995E0,9.769143015E0
1.227269903E0,-1.310070455E-1,-5.629115105E-1,9.776774406E0,9.793842454E0
1.229716101E0,-1.214357466E-1,-5.868397355E-1,9.755238533E0,9.773628106E0
1.232162299E0,-1.166501045E-1,-5.916253924E-1,9.752845764E0,9.771470122E0
1.234608496E0,-1.357926875E-1,-5.820540786E-1,9.769596100E0,9.787861593E0
1.237055476E0,-1.333998591E-1,-5.748756528E-1,9.762416840E0,9.780238243E0
1.239500788E0,-1.166501045E-1,-5.868397355E-1,9.762416840E0,9.780734669E0
1.241947038E0,-1.238285750E-1,-5.940182209E-1,9.745667458E0,9.764539178E0
1.244393965E0,-1.094716340E-1,-5.724828243E-1,9.767203331E0,9.784578761E0
1.246839330E0,-1.333998591E-1,-5.772684813E-1,9.769596100E0,9.787545268E0
1.249285528E0,-9.511470050E-2,-5.892325640E-1,9.738489151E0,9.756762412E0
1.251731726E0,-9.511470050E-2,-5.988038778E-1,9.774381638E0,9.793168501E0
1.254177819E0,-1.214357466E-1,-5.844469070E-1,9.755238533E0,9.773484725E0
1.256624851E0,-1.214357466E-1,-5.844469070E-1,9.762416840E0,9.780649640E0
1.259070215E0,-1.070788130E-1,-5.700899959E-1,9.736096382E0,9.753360510E0
1.261516413E0,-1.022931710E-1,-5.844469070E-1,9.757631302E0,9.775653978E0
1.263963392E0,-1.333998591E-1,-5.700899959E-1,9.745667458E0,9.763238823E0
1.266408757E0,-1.333998591E-1,-5.916253924E-1,9.743274689E0,9.762131826E0
1.268854955E0,-1.022931710E-1,-5.820540786E-1,9.736096382E0,9.754015768E0
1.271301153E0,-8.075776696E-2,-5.796613097E-1,9.755238533E0,9.772778923E0
1.273747246E0,-1.166501045E-1,-5.940182209E-1,9.740881920E0,9.759674455E0
1.276194278E0,-1.118644550E-1,-5.629115105E-1,9.745667458E0,9.762551778E0
1.278639642E0,-1.070788130E-1,-5.940182209E-1,9.745667458E0,9.764341130E0
1.281085840E0,-1.190429255E-1,-6.011967063E-1,9.750452995E0,9.769695098E0
1.283532819E0,-1.022931710E-1,-5.820540786E-1,9.776774406E0,9.794619372E0
1.285978132E0,-1.022931710E-1,-5.868397355E-1,9.745667458E0,9.763855743E0
1.288424382E0,-9.750752151E-2,-5.605186820E-1,9.748060226E0,9.764648846E0
1.290870580E0,-9.990034252E-2,-5.772684813E-1,9.743274689E0,9.760871920E0
1.293316674E0,-7.357929647E-2,-5.557330847E-1,9.750452995E0,9.766554499E0
1.295763705E0,-8.554340899E-2,-5.772684813E-1,9.752845764E0,9.770289508E0
1.298209069E0,-8.793623000E-2,-5.676971674E-1,9.764810562E0,9.781694034E0
1.300655267E0,-9.272187948E-2,-5.581258535E-1,9.750452995E0,9.766853917E0
1.303102246E0,-1.022931710E-1,-5.724828243E-1,9.762416840E0,9.779723055E0
1.305547559E0,-1.022931710E-1,-5.557330847E-1,9.752845764E0,9.769201792E0
1.307993809E0,-9.511470050E-2,-5.437689424E-1,9.764810562E0,9.780401668E0
1.310440007E0,-1.070788130E-1,-5.533402562E-1,9.762416840E0,9.778672398E0
1.312886101E0,-1.238285750E-1,-5.700899959E-1,9.748060226E0,9.765501231E0
1.315333132E0,-1.070788130E-1,-5.533402562E-1,9.750452995E0,9.766728466E0
1.317778444E0,-1.333998591E-1,-5.629115105E-1,9.750452995E0,9.767599424E0
1.320224694E0,-1.381855011E-1,-5.341976285E-1,9.767203331E0,9.782776868E0
1.322671674E0,-1.333998591E-1,-5.557330847E-1,9.767203331E0,9.783910041E0
1.325116986E0,-1.477568001E-1,-5.389832854E-1,9.767203331E0,9.783179236E0
1.327563236E0,-1.573280841E-1,-5.533402562E-1,9.736096382E0,9.753076967E0
1.330009434E0,-1.573280841E-1,-5.437689424E-1,9.769596100E0,9.785982053E0
1.332455528E0,-1.597209126E-1,-5.318048596E-1,9.762416840E0,9.778195627E0
1.334902559E0,-1.549352705E-1,-5.509474277E-1,9.752845764E0,9.769623765E0
1.337347871E0,-1.429711580E-1,-5.485545993E-1,9.757631302E0,9.774084178E0
1.339794121E0,-1.310070455E-1,-5.461617708E-1,9.736096382E0,9.752283235E0
1.342241101E0,-1.573280841E-1,-5.533402562E-1,9.762416840E0,9.779351723E0
1.344686413E0,-1.333998591E-1,-5.341976285E-1,9.781559944E0,9.797044328E0
1.347132663E0,-1.262213886E-1,-5.102694035E-1,9.771988869E0,9.786116347E0
1.349578757E0,-1.190429255E-1,-5.341976285E-1,9.755238533E0,9.770579162E0
1.352025007E0,-1.429711580E-1,-5.222335458E-1,9.764810562E0,9.779810527E0
1.354471986E0,-1.381855011E-1,-5.533402562E-1,9.767203331E0,9.783840840E0
1.356917299E0,-1.310070455E-1,-5.389832854E-1,9.764810562E0,9.780551679E0
1.359363549E0,-1.238285750E-1,-5.198407173E-1,9.774381638E0,9.788978715E0
1.361810528E0,-1.238285750E-1,-5.461617708E-1,9.781559944E0,9.797578330E0
1.364255840E0,-1.501496136E-1,-5.246263742E-1,9.764810562E0,9.780046168E0
1.366702090E0,-1.477568001E-1,-5.413761139E-1,9.769596100E0,9.785700186E0
1.369148184E0,-1.190429255E-1,-5.198407173E-1,9.760024071E0,9.774583134E0
1.371594434E0,-1.190429255E-1,-5.461617708E-1,9.760024071E0,9.776018298E0
1.374041413E0,-1.190429255E-1,-5.270192027E-1,9.750452995E0,9.765411106E0
1.376486726E0,-1.310070455E-1,-5.389832854E-1,9.752845764E0,9.768606161E0
1.378932976E0,-1.333998591E-1,-5.485545993E-1,9.745667458E0,9.762005013E0
1.381379955E0,-1.118644550E-1,-5.389832854E-1,9.750452995E0,9.765979226E0
1.383825267E0,-1.070788130E-1,-5.533402562E-1,9.728918076E0,9.745229512E0
1.386271517E0,-1.094716340E-1,-5.437689424E-1,9.752845764E0,9.768606308E0
1.388717611E0,-1.022931710E-1,-5.461617708E-1,9.745667458E0,9.761495314E0
1.391163861E0,-1.166501045E-1,-5.461617708E-1,9.762416840E0,9.778378315E0
1.393610840E0,-1.238285750E-1,-5.485545993E-1,9.745667458E0,9.761878910E0
1.396056153E0,-1.022931710E-1,-5.629115105E-1,9.755238533E0,9.772001438E0
1.398502403E0,-1.046859920E-1,-5.605186820E-1,9.740881920E0,9.757557119E0
1.400949330E0,-1.094716340E-1,-5.605186820E-1,9.748060226E0,9.764775646E0
1.403394694E0,-8.793623000E-2,-5.629115105E-1,9.740881920E0,9.757529540E0
1.405840944E0,-9.750752151E-2,-5.485545993E-1,9.774381638E0,9.790248018E0
1.408287038E0,-9.032905847E-2,-5.748756528E-1,9.748060226E0,9.765414458E0
1.410733288E0,-1.046859920E-1,-5.748756528E-1,9.762416840E0,9.779888738E0
1.413180267E0,-9.990034252E-2,-5.509474277E-1,9.774381638E0,9.790406506E0
1.415625580E0,-9.032905847E-2,-5.461617708E-1,9.771988869E0,9.787656434E0
1.418071778E0,-8.554340899E-2,-5.437689424E-1,9.755238533E0,9.770756428E0
1.420518757E0,-8.554340899E-2,-5.557330847E-1,9.771988869E0,9.788152195E0
1.422964121E0,-8.075776696E-2,-5.485545993E-1,9.767203331E0,9.782928747E0
1.425410319E0,-9.032905847E-2,-5.365904570E-1,9.774381638E0,9.789516079E0
1.427856517E0,-9.990034252E-2,-5.294120312E-1,9.745667458E0,9.760547698E0
1.430302611E0,-1.022931710E-1,-5.341976285E-1,9.743274689E0,9.758444172E0
1.432749642E0,-8.793623000E-2,-5.365904570E-1,9.736096382E0,9.751268372E0
1.435195007E0,-8.075776696E-2,-5.341976285E-1,9.740881920E0,9.755853089E0
1.437641205E0,-7.597211748E-2,-5.294120312E-1,9.728918076E0,9.743607945E0
1.440088184E0,-1.118644550E-1,-5.318048596E-1,9.767203331E0,9.782310104E0
1.442533549E0,-9.032905847E-2,-5.198407173E-1,9.731310844E0,9.745604366E0
1.444979746E0,-1.190429255E-1,-5.198407173E-1,9.731310844E0,9.745912802E0
1.447425944E0,-1.046859920E-1,-5.318048596E-1,9.752845764E0,9.767895171E0
1.449872038E0,-1.022931710E-1,-5.294120312E-1,9.745667458E0,9.760572482E0
1.452319069E0,-1.262213886E-1,-5.246263742E-1,9.760024071E0,9.774928876E0
1.454764434E0,-9.750752151E-2,-5.318048596E-1,9.748060226E0,9.763042677E0
1.457210632E0,-1.118644550E-1,-5.365904570E-1,9.740881920E0,9.756291486E0
1.459657611E0,-1.022931710E-1,-5.318048596E-1,9.733703613E0,9.748757169E0
1.462102924E0,-1.190429255E-1,-5.533402562E-1,9.760024071E0,9.776421969E0
1.464549174E0,-1.381855011E-1,-5.533402562E-1,9.760024071E0,9.776673797E0
1.466995371E0,-1.405783296E-1,-5.581258535E-1,9.748060226E0,9.765036862E0
1.469441465E0,-1.262213886E-1,-5.653043389E-1,9.771988869E0,9.789140273E0
1.471888496E0,-9.032905847E-2,-5.629115105E-1,9.762416840E0,9.779049609E0
1.474333861E0,-8.554340899E-2,-5.676971674E-1,9.762416840E0,9.779283220E0
1.476780059E0,-1.214357466E-1,-5.916253924E-1,9.767203331E0,9.785858580E0
1.479227038E0,-1.094716340E-1,-5.820540786E-1,9.764810562E0,9.782755047E0
1.481672351E0,-1.118644550E-1,-5.916253924E-1,9.767203331E0,9.785744487E0
1.484118601E0,-1.142572835E-1,-5.940182209E-1,9.743274689E0,9.762034318E0
1.486564799E0,-1.310070455E-1,-5.964110494E-1,9.767203331E0,9.786272523E0
1.489010892E0,-1.118644550E-1,-5.916253924E-1,9.745667458E0,9.764249508E0
1.491457924E0,-1.214357466E-1,-5.796613097E-1,9.776774406E0,9.794696099E0
1.493903236E0,-1.094716340E-1,-5.940182209E-1,9.771988869E0,9.790638801E0
1.496349486E0,-1.214357466E-1,-6.131607890E-1,9.757631302E0,9.777631688E0
1.498796465E0,-1.381855011E-1,-6.107679605E-1,9.767203331E0,9.787256697E0
1.501241778E0,-1.501496136E-1,-6.179464459E-1,9.755238533E0,9.775944024E0
1.503688028E0,-1.190429255E-1,-6.035895348E-1,9.743274689E0,9.762678588E0
1.506134226E0,-1.477568001E-1,-5.940182209E-1,9.760024071E0,9.779200355E0
1.508580319E0,-1.310070455E-1,-5.700899959E-1,9.781559944E0,9.799034666E0
1.511027351E0,-1.525424421E-1,-5.892325640E-1,9.755238533E0,9.774208052E0
1.513472663E0,-1.453639716E-1,-5.820540786E-1,9.752845764E0,9.771280271E0
1.515918913E0,-1.214357466E-1,-5.748756528E-1,9.748060226E0,9.765751729E0
1.518365892E0,-1.310070455E-1,-5.796613097E-1,9.757631302E0,9.775711672E0
1.520811205E0,-1.381855011E-1,-5.653043389E-1,9.762416840E0,9.779746765E0
1.523257455E0,-1.501496136E-1,-5.724828243E-1,9.743274689E0,9.761233690E0
1.525703549E0,-1.190429255E-1,-5.485545993E-1,9.738489151E0,9.754652957E0
1.528149799E0,-1.094716340E-1,-5.700899959E-1,9.750452995E0,9.767718273E0
1.530596778E0,-1.190429255E-1,-5.485545993E-1,9.755238533E0,9.771374632E0
1.533042090E0,-1.166501045E-1,-5.485545993E-1,9.760024071E0,9.776123427E0
1.535488340E0,-1.238285750E-1,-5.485545993E-1,9.767203331E0,9.783379098E0
1.537935319E0,-1.022931710E-1,-5.485545993E-1,9.764810562E0,9.780741350E0
1.540380632E0,-1.022931710E-1,-5.413761139E-1,9.738489151E0,9.754061868E0
1.542826882E0,-1.070788130E-1,-5.437689424E-1,9.750452995E0,9.766190872E0
1.545272976E0,-1.070788130E-1,-5.509474277E-1,9.714560509E0,9.730760238E0
1.547719226E0,-1.190429255E-1,-5.581258535E-1,9.755238533E0,9.771916625E0
1.550166205E0,-1.046859920E-1,-5.461617708E-1,9.767203331E0,9.783021657E0
1.552611517E0,-1.238285750E-1,-5.150550604E-1,9.762416840E0,9.776778497E0
1.555057767E0,-1.070788130E-1,-5.437689424E-1,9.767203331E0,9.782914261E0
1.557504694E0,-6.640082598E-2,-5.533402562E-1,9.779167175E0,9.795034719E0
1.559950059E0,-9.511470050E-2,-5.389832854E-1,9.743274689E0,9.758634712E0
1.562396309E0,-9.032905847E-2,-5.557330847E-1,9.760024071E0,9.776250225E0
1.564842403E0,-1.094716340E-1,-5.509474277E-1,9.750452995E0,9.766619718E0
1.567288653E0,-1.142572835E-1,-5.557330847E-1,9.762416840E0,9.778889331E0
1.569735632E0,-9.511470050E-2,-5.533402562E-1,9.774381638E0,9.790493790E0
1.572180944E0,-1.357926875E-1,-5.581258535E-1,9.769596100E0,9.786467804E0
1.574627194E0,-9.990034252E-2,-5.724828243E-1,9.757631302E0,9.774921242E0
1.577074174E0,-9.990034252E-2,-5.629115105E-1,9.745667458E0,9.762422017E0
1.579519486E0,-1.046859920E-1,-5.581258535E-1,9.750452995E0,9.766974825E0
1.581965684E0,-1.190429255E-1,-5.605186820E-1,9.748060226E0,9.764887638E0
1.584411882E0,-1.238285750E-1,-5.533402562E-1,9.755238533E0,9.771703935E0
1.586858080E0,-1.190429255E-1,-5.533402562E-1,9.748060226E0,9.764478216E0
1.589305059E0,-1.070788130E-1,-5.533402562E-1,9.748060226E0,9.764339685E0
1.591750371E0,-1.070788130E-1,-5.557330847E-1,9.757631302E0,9.774030579E0
1.594196621E0,-1.333998591E-1,-5.676971674E-1,9.769596100E0,9.786985417E0
1.596643549E0,-1.333998591E-1,-5.533402562E-1,9.743274689E0,9.759886404E0
1.599088913E0,-1.118644550E-1,-5.605186820E-1,9.738489151E0,9.755248115E0
1.601535111E0,-1.118644550E-1,-5.748756528E-1,9.769596100E0,9.787134597E0
1.603981309E0,-1.381855011E-1,-5.557330847E-1,9.745667458E0,9.762477590E0
1.606427507E0,-1.310070455E-1,-5.820540786E-1,9.767203331E0,9.785408050E0
1.608874434E0,-1.310070455E-1,-5.629115105E-1,9.771988869E0,9.789065260E0
1.611319799E0,-1.453639716E-1,-5.629115105E-1,9.760024071E0,9.777324272E0
1.613765996E0,-1.214357466E-1,-5.653043389E-1,9.760024071E0,9.777135853E0
1.616212976E0,-1.429711580E-1,-5.676971674E-1,9.760024071E0,9.777565683E0
1.618658340E0,-1.381855011E-1,-5.485545993E-1,9.748060226E0,9.764460331E0
1.621104538E0,-1.310070455E-1,-5.581258535E-1,9.762416840E0,9.779235648E0
1.623550736E0,-1.405783296E-1,-5.724828243E-1,9.748060226E0,9.765867961E0
1.625996830E0,-1.238285750E-1,-5.629115105E-1,9.760024071E0,9.777027807E0
1.628443861E0,-1.453639716E-1,-5.700899959E-1,9.755238533E0,9.772963324E0
1.630889226E0,-1.238285750E-1,-5.868397355E-1,9.764810562E0,9.783212136E0
1.633335424E0,-1.118644550E-1,-5.724828243E-1,9.764810562E0,9.782217313E0
1.635782403E0,-1.142572835E-1,-5.916253924E-1,9.757631302E0,9.776218285E0
1.638227715E0,-1.118644550E-1,-5.724828243E-1,9.762416840E0,9.779827851E0
1.640673965E0,-1.333998591E-1,-5.605186820E-1,9.762416840E0,9.779404852E0
1.643120163E0,-1.070788130E-1,-5.796613097E-1,9.752845764E0,9.770643459E0
1.645566257E0,-1.118644550E-1,-5.676971674E-1,9.767203331E0,9.784326990E0
1.648013288E0,-1.238285750E-1,-5.700899959E-1,9.767203331E0,9.784610213E0
1.650458601E0,-1.070788130E-1,-5.629115105E-1,9.755238533E0,9.772052705E0
1.652904851E0,-1.022931710E-1,-5.605186820E-1,9.736096382E0,9.752754372E0
1.655351830E0,-1.070788130E-1,-5.485545993E-1,9.762416840E0,9.778402762E0
1.657797142E0,-1.166501045E-1,-5.844469070E-1,9.745667458E0,9.763873188E0
1.660243392E0,-1.142572835E-1,-5.581258535E-1,9.769596100E0,9.786192679E0
1.662689590E0,-9.511470050E-2,-5.629115105E-1,9.752845764E0,9.769540249E0
1.665135684E0,-1.094716340E-1,-5.533402562E-1,9.760024071E0,9.776310109E0
1.667582715E0,-9.032905847E-2,-5.605186820E-1,9.762416840E0,9.778912162E0
1.670028080E0,-7.597211748E-2,-5.581258535E-1,9.764810562E0,9.781042968E0
1.672474278E0,-1.070788130E-1,-5.844469070E-1,9.764810562E0,9.782871223E0
1.674921257E0,-1.046859920E-1,-5.605186820E-1,9.738489151E0,9.755168440E0
1.677366569E0,-1.190429255E-1,-5.724828243E-1,9.762416840E0,9.779912594E0
1.679812819E0,-1.070788130E-1,-5.605186820E-1,9.760024071E0,9.776692535E0
1.682258913E0,-1.022931710E-1,-5.653043389E-1,9.752845764E0,9.769750938E0
1.684705163E0,-1.070788130E-1,-5.461617708E-1,9.733703613E0,9.749602278E0
1.687152142E0,-1.118644550E-1,-5.389832854E-1,9.774381638E0,9.789869919E0
1.689597455E0,-1.094716340E-1,-5.557330847E-1,9.771988869E0,9.788390560E0
1.692043705E0,-1.286142170E-1,-5.509474277E-1,9.769596100E0,9.785964063E0
1.694490684E0,-1.166501045E-1,-5.461617708E-1,9.740881920E0,9.756878625E0
1.696935996E0,-1.262213886E-1,-5.629115105E-1,9.745667458E0,9.762726843E0
1.699382246E0,-1.190429255E-1,-5.581258535E-1,9.748060226E0,9.764750579E0
1.701828340E0,-1.190429255E-1,-5.509474277E-1,9.776774406E0,9.793009348E0
1.704274590E0,-1.166501045E-1,-5.461617708E-1,9.764810562E0,9.780768131E0
1.706721569E0,-1.166501045E-1,-5.509474277E-1,9.745667458E0,9.761925246E0
1.709166882E0,-1.262213886E-1,-5.533402562E-1,9.767203331E0,9.783679174E0
1.711613132E0,-1.142572835E-1,-5.485545993E-1,9.767203331E0,9.783262635E0
1.714060111E0,-1.190429255E-1,-5.485545993E-1,9.757631302E0,9.773763451E0
1.716505424E0,-1.166501045E-1,-5.461617708E-1,9.752845764E0,9.768822878E0
1.718951674E0,-1.405783296E-1,-5.389832854E-1,9.750452995E0,9.766350335E0
1.721397767E0,-1.286142170E-1,-5.341976285E-1,9.755238533E0,9.770700464E0
1.723844017E0,-1.262213886E-1,-5.461617708E-1,9.745667458E0,9.761775387E0
1.726290996E0,-1.190429255E-1,-5.341976285E-1,9.755238533E0,9.770579162E0
1.728736309E0,-1.262213886E-1,-5.270192027E-1,9.748060226E0,9.763112171E0
1.731182559E0,-1.357926875E-1,-5.294120312E-1,9.769596100E0,9.784872238E0
1.733629538E0,-1.214357466E-1,-5.294120312E-1,9.738489151E0,9.753624695E0
1.736074851E0,-1.310070455E-1,-5.294120312E-1,9.757631302E0,9.772860818E0
1.738521101E0,-1.190429255E-1,-5.270192027E-1,9.762416840E0,9.777356647E0
1.740967194E0,-1.166501045E-1,-5.413761139E-1,9.757631302E0,9.773334332E0
1.743413444E0,-1.190429255E-1,-5.365904570E-1,9.745667458E0,9.761154375E0
1.745860424E0,-1.286142170E-1,-5.246263742E-1,9.750452995E0,9.765403630E0
1.748305736E0,-1.118644550E-1,-5.341976285E-1,9.748060226E0,9.763327247E0
1.750751986E0,-1.190429255E-1,-5.461617708E-1,9.752845764E0,9.768851744E0
1.753198913E0,-1.286142170E-1,-5.413761139E-1,9.757631302E0,9.773484452E0
1.755644278E0,-1.405783296E-1,-5.365904570E-1,9.736096382E0,9.751885169E0
1.758090476E0,-1.238285750E-1,-5.461617708E-1,9.779167175E0,9.795189474E0
1.760536674E0,-1.286142170E-1,-5.581258535E-1,9.771988869E0,9.788759499E0
1.762982871E0,-1.238285750E-1,-5.461617708E-1,9.752845764E0,9.768911234E0
1.765429851E0,-1.142572835E-1,-5.485545993E-1,9.738489151E0,9.754595728E0
1.767875163E0,-1.333998591E-1,-5.748756528E-1,9.745667458E0,9.763519434E0
1.770321361E0,-1.190429255E-1,-5.581258535E-1,9.776774406E0,9.793415823E0
1.772768340E0,-1.238285750E-1,-5.676971674E-1,9.760024071E0,9.777304508E0
1.775213705E0,-1.429711580E-1,-5.820540786E-1,9.743274689E0,9.761691931E0
1.777659903E0,-1.453639716E-1,-5.557330847E-1,9.750452995E0,9.767359088E0
1.780106101E0,-1.381855011E-1,-5.557330847E-1,9.757631302E0,9.774420858E0
1.782552194E0,-1.142572835E-1,-5.844469070E-1,9.771988869E0,9.790117434E0
1.784999226E0,-1.046859920E-1,-5.700899959E-1,9.767203331E0,9.784386678E0
1.787444590E0,-1.477568001E-1,-5.509474277E-1,9.750452995E0,9.767123873E0
1.789890788E0,-1.142572835E-1,-5.772684813E-1,9.745667458E0,9.763417835E0
1.792337767E0,-1.214357466E-1,-5.796613097E-1,9.752845764E0,9.770811347E0
1.794783132E0,-1.238285750E-1,-5.653043389E-1,9.764810562E0,9.781943970E0
1.797229330E0,-1.190429255E-1,-5.700899959E-1,9.740881920E0,9.758276200E0
1.799675528E0,-9.990034252E-2,-5.724828243E-1,9.762416840E0,9.779698319E0
1.802121621E0,-1.238285750E-1,-5.676971674E-1,9.760024071E0,9.777304508E0
1.804568653E0,-1.333998591E-1,-5.676971674E-1,9.733703613E0,9.751156938E0
1.807014017E0,-1.070788130E-1,-5.676971674E-1,9.769596100E0,9.786662041E0
1.809460215E0,-1.238285750E-1,-5.653043389E-1,9.762416840E0,9.779554441E0
1.811907194E0,-1.142572835E-1,-5.796613097E-1,9.757631302E0,9.775501552E0
1.814352559E0,-1.166501045E-1,-5.653043389E-1,9.738489151E0,9.755580310E0
1.816798757E0,-1.094716340E-1,-5.700899959E-1,9.733703613E0,9.750998547E0
1.819244955E0,-1.190429255E-1,-5.653043389E-1,9.755238533E0,9.772329254E0
1.821691049E0,-1.214357466E-1,-5.916253924E-1,9.764810562E0,9.783470374E0
1.824138080E0,-8.793623000E-2,-5.533402562E-1,9.750452995E0,9.766537351E0
1.826583444E0,-9.990034252E-2,-5.629115105E-1,9.752845764E0,9.769588013E0
1.829029642E0,-9.272187948E-2,-5.700899959E-1,9.760024071E0,9.777099253E0
1.831476621E0,-9.511470050E-2,-5.820540786E-1,9.760024071E0,9.777827142E0
1.833921934E0,-1.070788130E-1,-5.796613097E-1,9.750452995E0,9.768255050E0
1.836368184E0,-1.070788130E-1,-5.700899959E-1,9.771988869E0,9.789189697E0
1.838814382E0,-9.750752151E-2,-5.605186820E-1,9.750452995E0,9.767037551E0
1.841260476E0,-9.272187948E-2,-5.341976285E-1,9.740881920E0,9.755959462E0
1.843707507E0,-1.070788130E-1,-5.629115105E-1,9.760024071E0,9.776830013E0
1.846152819E0,-1.118644550E-1,-5.557330847E-1,9.779167175E0,9.795583881E0
1.848599069E0,-1.214357466E-1,-5.653043389E-1,9.750452995E0,9.767581546E0
1.851046049E0,-1.094716340E-1,-5.748756528E-1,9.774381638E0,9.791884520E0
1.853491361E0,-1.310070455E-1,-5.557330847E-1,9.779167175E0,9.795821188E0
1.855937611E0,-1.214357466E-1,-5.724828243E-1,9.750452995E0,9.767999633E0
1.858383809E0,-9.511470050E-2,-5.341976285E-1,9.748060226E0,9.763149701E0
1.860829903E0,-1.166501045E-1,-5.581258535E-1,9.757631302E0,9.774276461E0
1.863276934E0,-1.118644550E-1,-5.365904570E-1,9.748060226E0,9.763458463E0
1.865722246E0,-1.166501045E-1,-5.700899959E-1,9.740881920E0,9.758247303E0
1.868168496E0,-1.070788130E-1,-5.533402562E-1,9.748060226E0,9.764339685E0
1.870615476E0,-1.094716340E-1,-5.437689424E-1,9.745667458E0,9.761439591E0
1.873060788E0,-1.046859920E-1,-5.485545993E-1,9.767203331E0,9.783155535E0
1.875507038E0,-1.286142170E-1,-5.318048596E-1,9.748060226E0,9.763402901E0
1.877953132E0,-1.070788130E-1,-5.341976285E-1,9.764810562E0,9.779997868E0
1.880399382E0,-9.990034252E-2,-5.413761139E-1,9.779167175E0,9.794650520E0
1.882846361E0,-1.381855011E-1,-5.413761139E-1,9.745667458E0,9.761670837E0
1.885291674E0,-8.315058798E-2,-5.198407173E-1,9.769596100E0,9.783770048E0
1.887737924E0,-1.142572835E-1,-5.318048596E-1,9.774381638E0,9.789504969E0
1.890184903E0,-1.046859920E-1,-5.389832854E-1,9.764810562E0,9.780234530E0
1.892630215E0,-1.070788130E-1,-5.581258535E-1,9.750452995E0,9.767000766E0
1.895076465E0,-1.094716340E-1,-5.222335458E-1,9.752845764E0,9.767431209E0
1.897522559E0,-9.511470050E-2,-5.413761139E-1,9.757631302E0,9.773101019E0
1.899968809E0,-1.046859920E-1,-5.294120312E-1,9.752845764E0,9.767765187E0
1.902415788E0,-1.142572835E-1,-5.318048596E-1,9.774381638E0,9.789504969E0
1.904861101E0,-1.238285750E-1,-5.222335458E-1,9.731310844E0,9.746100356E0
1.907307351E0,-1.094716340E-1,-5.437689424E-1,9.752845764E0,9.768606308E0
1.909754330E0,-1.166501045E-1,-5.341976285E-1,9.750452995E0,9.765772267E0
1.912199642E0,-1.286142170E-1,-5.246263742E-1,9.760024071E0,9.774960067E0
1.914645892E0,-1.381855011E-1,-5.437689424E-1,9.776774406E0,9.792859526E0
1.917091986E0,-1.262213886E-1,-5.198407173E-1,9.769596100E0,9.784230893E0
1.919538236E0,-1.310070455E-1,-5.270192027E-1,9.771988869E0,9.787066902E0
1.921985215E0,-1.429711580E-1,-5.485545993E-1,9.757631302E0,9.774084178E0
1.924430528E0,-1.238285750E-1,-5.557330847E-1,9.764810562E0,9.781395508E0
1.926876778E0,-1.166501045E-1,-5.389832854E-1,9.757631302E0,9.773202078E0
1.929323705E0,-1.262213886E-1,-5.485545993E-1,9.743274689E0,9.759520769E0
1.931769069E0,-1.190429255E-1,-5.581258535E-1,9.748060226E0,9.764750579E0
1.934215267E0,-1.262213886E-1,-5.581258535E-1,9.743274689E0,9.760063420E0
1.936661465E0,-1.070788130E-1,-5.581258535E-1,9.760024071E0,9.776555641E0
1.939107663E0,-1.286142170E-1,-5.724828243E-1,9.726525307E0,9.744207138E0
1.941554642E0,-1.238285750E-1,-5.724828243E-1,9.755238533E0,9.772806605E0
1.943999955E0,-1.166501045E-1,-5.629115105E-1,9.752845764E0,9.769773647E0
1.946446153E0,-1.333998591E-1,-5.796613097E-1,9.764810562E0,9.782910000E0
1.948893132E0,-1.190429255E-1,-5.676971674E-1,9.745667458E0,9.762913781E0
1.951338496E0,-1.190429255E-1,-5.676971674E-1,9.750452995E0,9.767690869E0
1.953784694E0,-1.190429255E-1,-5.820540786E-1,9.779167175E0,9.797196987E0
1.956230892E0,-9.750752151E-2,-5.868397355E-1,9.757631302E0,9.775748422E0
1.958677090E0,-1.190429255E-1,-5.605186820E-1,9.748060226E0,9.764887638E0
1.961124017E0,-1.190429255E-1,-5.772684813E-1,9.755238533E0,9.773028648E0
1.963569382E0,-9.750752151E-2,-5.653043389E-1,9.781559944E0,9.798366785E0
1.966015580E0,-1.022931710E-1,-5.796613097E-1,9.755238533E0,9.772980608E0
1.968462559E0,-1.070788130E-1,-5.724828243E-1,9.764810562E0,9.782163757E0
1.970907924E0,-1.070788130E-1,-5.581258535E-1,9.760024071E0,9.776555641E0
1.973354121E0,-1.070788130E-1,-5.844469070E-1,9.757631302E0,9.775705227E0
1.975800319E0,-9.750752151E-2,-5.748756528E-1,9.743274689E0,9.760706501E0
1.978246413E0,-9.750752151E-2,-5.461617708E-1,9.752845764E0,9.768613049E0
1.980693444E0,-1.094716340E-1,-5.629115105E-1,9.757631302E0,9.774467864E0
1.983138809E0,-9.511470050E-2,-5.724828243E-1,9.760024071E0,9.777262053E0
1.985585007E0,-9.511470050E-2,-5.796613097E-1,9.755238533E0,9.772908107E0
1.988031986E0,-9.511470050E-2,-5.700899959E-1,9.774381638E0,9.791454734E0
1.990477299E0,-1.118644550E-1,-5.629115105E-1,9.755238533E0,9.772106317E0
1.992923549E0,-1.190429255E-1,-5.557330847E-1,9.764810562E0,9.781336095E0
1.995369746E0,-1.022931710E-1,-5.629115105E-1,9.757631302E0,9.774390103E0
1.997815840E0,-1.118644550E-1,-5.605186820E-1,9.750452995E0,9.767191432E0
2.000262871E0,-9.990034252E-2,-5.700899959E-1,9.748060226E0,9.765227128E0
2.002708236E0,-9.990034252E-2,-5.605186820E-1,9.764810562E0,9.781394920E0
2.005154434E0,-1.022931710E-1,-5.605186820E-1,9.762416840E0,9.779029995E0
2.007601413E0,-1.190429255E-1,-5.772684813E-1,9.764810562E0,9.782583270E0
2.010046726E0,-9.990034252E-2,-5.772684813E-1,9.760024071E0,9.777591157E0
2.012492976E0,-1.118644550E-1,-5.557330847E-1,9.738489151E0,9.754974314E0
2.014939174E0,-1.190429255E-1,-5.557330847E-1,9.769596100E0,9.786113551E0
2.017385267E0,-1.333998591E-1,-5.653043389E-1,9.757631302E0,9.774903229E0
2.019832299E0,-1.046859920E-1,-5.365904570E-1,9.757631302E0,9.772934928E0
2.022277611E0,-1.190429255E-1,-5.581258535E-1,9.755238533E0,9.771916625E0
2.024723861E0,-1.070788130E-1,-5.724828243E-1,9.733703613E0,9.751112167E0
2.027170840E0,-1.190429255E-1,-5.413761139E-1,9.736096382E0,9.751863005E0
2.029616153E0,-1.333998591E-1,-5.485545993E-1,9.740881920E0,9.757227488E0
2.032062403E0,-1.166501045E-1,-5.413761139E-1,9.760024071E0,9.775723257E0
2.034508496E0,-1.381855011E-1,-5.485545993E-1,9.764810562E0,9.781182582E0
2.036954746E0,-1.453639716E-1,-5.653043389E-1,9.771988869E0,9.789405811E0
2.039401726E0,-1.238285750E-1,-5.485545993E-1,9.752845764E0,9.769045305E0
2.041847038E0,-1.190429255E-1,-5.294120312E-1,9.750452995E0,9.765540534E0
2.044293288E0,-1.214357466E-1,-5.437689424E-1,9.743274689E0,9.759192229E0
2.046740267E0,-1.286142170E-1,-5.365904570E-1,9.748060226E0,9.763664738E0
2.049185580E0,-1.453639716E-1,-5.509474277E-1,9.764810562E0,9.781421117E0
2.051631830E0,-1.238285750E-1,-5.437689424E-1,9.762416840E0,9.778333229E0
2.054077924E0,-1.453639716E-1,-5.533402562E-1,9.748060226E0,9.764834576E0
2.056524174E0,-1.333998591E-1,-5.629115105E-1,9.755238533E0,9.772376565E0
2.058971153E0,-1.405783296E-1,-5.461617708E-1,9.748060226E0,9.764360354E0
2.061416465E0,-1.286142170E-1,-5.605186820E-1,9.743274689E0,9.760231784E0
2.063862715E0,-1.262213886E-1,-5.365904570E-1,9.762416840E0,9.777967258E0
2.066309694E0,-1.238285750E-1,-5.509474277E-1,9.757631302E0,9.773957500E0
2.068755007E0,-1.405783296E-1,-5.509474277E-1,9.755238533E0,9.771795340E0
2.071201257E0,-1.238285750E-1,-5.581258535E-1,9.755238533E0,9.771976096E0
2.073647351E0,-1.142572835E-1,-5.557330847E-1,9.738489151E0,9.755002047E0
2.076093601E0,-1.094716340E-1,-5.653043389E-1,9.769596100E0,9.786550004E0
2.078540580E0,-1.238285750E-1,-5.389832854E-1,9.769596100E0,9.785236045E0
2.080985892E0,-1.333998591E-1,-5.653043389E-1,9.748060226E0,9.765349082E0
2.083432142E0,-1.262213886E-1,-5.629115105E-1,9.728918076E0,9.746006779E0
2.085879121E0,-1.333998591E-1,-5.676971674E-1,9.745667458E0,9.763099395E0
2.088324434E0,-1.262213886E-1,-5.772684813E-1,9.769596100E0,9.787450061E0
2.090770684E0,-1.286142170E-1,-5.605186820E-1,9.760024071E0,9.776952116E0
2.093216778E0,-1.310070455E-1,-5.748756528E-1,9.762416840E0,9.780205898E0
2.095663028E0,-1.453639716E-1,-5.485545993E-1,9.769596100E0,9.786064111E0
2.098110007E0,-1.118644550E-1,-5.676971674E-1,9.762416840E0,9.779548879E0
2.100555319E0,-1.118644550E-1,-5.629115105E-1,9.752845764E0,9.769717679E0
2.103001569E0,-1.238285750E-1,-5.485545993E-1,9.745667458E0,9.761878910E0
2.105448549E0,-1.094716340E-1,-5.461617708E-1,9.755238533E0,9.771128674E0
2.107893861E0,-8.793623000E-2,-5.461617708E-1,9.750452995E0,9.766133271E0
2.110340059E0,-1.453639716E-1,-5.533402562E-1,9.743274689E0,9.760057263E0
2.112786257E0,-1.046859920E-1,-5.700899959E-1,9.755238533E0,9.772442919E0
2.115232455E0,-1.214357466E-1,-5.676971674E-1,9.764810562E0,9.782052547E0
2.117679434E0,-1.166501045E-1,-5.581258535E-1,9.757631302E0,9.774276461E0
2.120124746E0,-1.310070455E-1,-5.605186820E-1,9.743274689E0,9.760263608E0
2.122570944E0,-9.990034252E-2,-5.485545993E-1,9.762416840E0,9.778326788E0
2.125017924E0,-8.554340899E-2,-5.389832854E-1,9.769596100E0,9.784826448E0
2.127463288E0,-9.750752151E-2,-5.533402562E-1,9.750452995E0,9.766628219E0
2.129909486E0,-9.272187948E-2,-5.413761139E-1,9.757631302E0,9.773078024E0
2.132355684E0,-1.070788130E-1,-5.341976285E-1,9.740881920E0,9.756106475E0
2.134801882E0,-9.032905847E-2,-5.246263742E-1,9.755238533E0,9.769752863E0
2.137248809E0,-8.554340899E-2,-5.365904570E-1,9.728918076E0,9.744079942E0
2.139694174E0,-8.315058798E-2,-5.341976285E-1,9.738489151E0,9.753484099E0
2.142140371E0,-1.046859920E-1,-5.413761139E-1,9.743274689E0,9.758865145E0
2.144587351E0,-8.075776696E-2,-5.246263742E-1,9.760024071E0,9.774447530E0
2.147032715E0,-8.554340899E-2,-5.413761139E-1,9.760024071E0,9.775401559E0
2.149478913E0,-9.511470050E-2,-5.270192027E-1,9.745667458E0,9.760370395E0
2.151925111E0,-1.094716340E-1,-5.222335458E-1,9.755238533E0,9.769820405E0
2.154371205E0,-1.022931710E-1,-5.222335458E-1,9.750452995E0,9.764964177E0
2.156818236E0,-8.793623000E-2,-5.246263742E-1,9.750452995E0,9.764952597E0
2.159263601E0,-9.750752151E-2,-5.365904570E-1,9.755238533E0,9.770471630E0
2.161709799E0,-8.554340899E-2,-5.461617708E-1,9.762416840E0,9.778056704E0
2.164156778E0,-9.032905847E-2,-5.222335458E-1,9.731310844E0,9.745732295E0
2.166602090E0,-9.750752151E-2,-5.365904570E-1,9.738489151E0,9.753748407E0
2.169048340E0,-9.750752151E-2,-5.341976285E-1,9.745667458E0,9.760784242E0
2.171494538E0,-1.118644550E-1,-5.318048596E-1,9.748060226E0,9.763196620E0
2.173940632E0,-1.022931710E-1,-5.413761139E-1,9.748060226E0,9.763617678E0
2.176387663E0,-1.166501045E-1,-5.437689424E-1,9.755238533E0,9.771078280E0
2.178833028E0,-1.046859920E-1,-5.413761139E-1,9.752845764E0,9.768420945E0
2.181279226E0,-9.032905847E-2,-5.389832854E-1,9.750452995E0,9.765756291E0
2.183726205E0,-1.046859920E-1,-5.389832854E-1,9.760024071E0,9.775455590E0
2.186171517E0,-1.046859920E-1,-5.389832854E-1,9.750452995E0,9.765899639E0
2.188617767E0,-1.357926875E-1,-5.724828243E-1,9.760024071E0,9.777742383E0
2.191063965E0,-1.333998591E-1,-5.557330847E-1,9.774381638E0,9.791076099E0
2.193510059E0,-1.310070455E-1,-5.389832854E-1,9.755238533E0,9.770995070E0
2.195957090E0,-1.286142170E-1,-5.365904570E-1,9.740881920E0,9.756497912E0
2.198402403E0,-1.381855011E-1,-5.557330847E-1,9.755238533E0,9.772032201E0
2.200848653E0,-1.094716340E-1,-5.629115105E-1,9.760024071E0,9.776856513E0
2.203295632E0,-1.333998591E-1,-5.700899959E-1,9.743274689E0,9.760850362E0
2.205740944E0,-1.429711580E-1,-5.868397355E-1,9.760024071E0,9.778695797E0
2.208187194E0,-1.166501045E-1,-5.916253924E-1,9.764810562E0,9.783412143E0
2.210633288E0,-1.429711580E-1,-5.772684813E-1,9.745667458E0,9.763796078E0
2.213079538E0,-1.166501045E-1,-5.844469070E-1,9.767203331E0,9.785368994E0
2.215526517E0,-1.238285750E-1,-5.844469070E-1,9.757631302E0,9.775903044E0
2.217971830E0,-1.405783296E-1,-5.892325640E-1,9.788738251E0,9.807464189E0
2.220418080E0,-1.070788130E-1,-5.988038778E-1,9.776774406E0,9.795680158E0
2.222865059E0,-1.381855011E-1,-5.940182209E-1,9.760024071E0,9.779060422E0
2.225310371E0,-1.477568001E-1,-5.940182209E-1,9.774381638E0,9.793529809E0
2.227756621E0,-1.310070455E-1,-6.107679605E-1,9.755238533E0,9.775217603E0
2.230202715E0,-1.214357466E-1,-5.892325640E-1,9.748060226E0,9.766607386E0
2.232648965E0,-1.166501045E-1,-5.844469070E-1,9.745667458E0,9.763873188E0
2.235095944E0,-1.405783296E-1,-6.107679605E-1,9.743274689E0,9.763411362E0
2.237541257E0,-1.381855011E-1,-6.011967063E-1,9.757631302E0,9.777111094E0
2.239987507E0,-1.262213886E-1,-6.011967063E-1,9.767203331E0,9.786502451E0
2.242434486E0,-1.310070455E-1,-5.964110494E-1,9.764810562E0,9.783884418E0
2.244879799E0,-1.238285750E-1,-5.748756528E-1,9.752845764E0,9.770558635E0
2.247326049E0,-1.333998591E-1,-5.868397355E-1,9.776774406E0,9.795279179E0
2.249772142E0,-1.549352705E-1,-5.820540786E-1,9.767203331E0,9.785757651E0
2.252218392E0,-1.286142170E-1,-5.844469070E-1,9.767203331E0,9.785518929E0
2.254665371E0,-1.118644550E-1,-5.820540786E-1,9.743274689E0,9.761285892E0
2.257110684E0,-1.238285750E-1,-5.796613097E-1,9.774381638E0,9.792337675E0
2.259556934E0,-1.214357466E-1,-5.868397355E-1,9.769596100E0,9.787958698E0
2.262003913E0,-1.214357466E-1,-5.581258535E-1,9.755238533E0,9.771946067E0
2.264449226E0,-9.990034252E-2,-5.724828243E-1,9.745667458E0,9.762978585E0
2.266895476E0,-1.046859920E-1,-5.724828243E-1,9.771988869E0,9.789303458E0
2.269341569E0,-1.310070455E-1,-5.485545993E-1,9.752845764E0,9.769138933E0
2.271787819E0,-1.214357466E-1,-5.605186820E-1,9.745667458E0,9.762528465E0
2.274234799E0,-1.142572835E-1,-5.437689424E-1,9.709774971E0,9.725660357E0
2.276680111E0,-1.238285750E-1,-5.294120312E-1,9.755238533E0,9.770378163E0
2.279126361E0,-1.046859920E-1,-5.365904570E-1,9.760024071E0,9.775323950E0
2.281573288E0,-1.214357466E-1,-5.365904570E-1,9.776774406E0,9.792241508E0
2.284018653E0,-9.990034252E-2,-5.413761139E-1,9.757631302E0,9.773148766E0
2.286464851E0,-8.793623000E-2,-5.150550604E-1,9.752845764E0,9.766832393E0
2.288911049E0,-9.032905847E-2,-5.198407173E-1,9.752845764E0,9.767107771E0
2.291357246E0,-1.046859920E-1,-5.078766346E-1,9.757631302E0,9.771400435E0
2.293804174E0,-1.142572835E-1,-5.078766346E-1,9.760024071E0,9.773897036E0
2.296249538E0,-9.032905847E-2,-5.174478889E-1,9.748060226E0,9.762202100E0
2.298695736E0,-6.879365444E-2,-5.030909777E-1,9.764810562E0,9.778003805E0
2.301142715E0,-8.075776696E-2,-5.198407173E-1,9.748060226E0,9.762245355E0
2.303588080E0,-9.032905847E-2,-5.054838061E-1,9.743274689E0,9.756796343E0
2.306034278E0,-1.046859920E-1,-5.078766346E-1,9.738489151E0,9.752285310E0
2.308480476E0,-1.166501045E-1,-4.983053207E-1,9.767203331E0,9.780602044E0
2.310926674E0,-1.022931710E-1,-5.078766346E-1,9.760024071E0,9.773764496E0
2.313373601E0,-9.272187948E-2,-5.198407173E-1,9.755238533E0,9.769519464E0
2.315818965E0,-9.990034252E-2,-5.006981492E-1,9.738489151E0,9.751863907E0
2.318265163E0,-7.118647546E-2,-5.318048596E-1,9.740881920E0,9.755647826E0
2.320712142E0,-9.750752151E-2,-5.341976285E-1,9.764810562E0,9.779897757E0
2.323157507E0,-1.046859920E-1,-5.294120312E-1,9.750452995E0,9.765376074E0
2.325603705E0,-1.262213886E-1,-5.318048596E-1,9.774381638E0,9.789651916E0
2.328049903E0,-8.554340899E-2,-5.102694035E-1,9.762416840E0,9.776117588E0
2.330495996E0,-1.094716340E-1,-5.437689424E-1,9.733703613E0,9.749495101E0
2.332943028E0,-9.272187948E-2,-5.557330847E-1,9.750452995E0,9.766717474E0
2.335388392E0,-9.511470050E-2,-5.437689424E-1,9.738489151E0,9.754122329E0
2.337834590E0,-1.070788130E-1,-5.581258535E-1,9.760024071E0,9.776555641E0
2.340281569E0,-1.142572835E-1,-5.629115105E-1,9.757631302E0,9.774522634E0
2.342726882E0,-1.070788130E-1,-5.509474277E-1,9.760024071E0,9.776148465E0
2.345173132E0,-1.262213886E-1,-5.557330847E-1,9.757631302E0,9.774259037E0
2.347619330E0,-1.190429255E-1,-5.772684813E-1,9.750452995E0,9.768251826E0
2.350065424E0,-1.262213886E-1,-5.676971674E-1,9.750452995E0,9.767780993E0
2.352512455E0,-1.094716340E-1,-5.820540786E-1,9.752845764E0,9.770812223E0
2.354957819E0,-1.142572835E-1,-5.772684813E-1,9.752845764E0,9.770583101E0
2.357404017E0,-1.214357466E-1,-6.059823632E-1,9.752845764E0,9.772408187E0
2.359850996E0,-1.262213886E-1,-5.820540786E-1,9.738489151E0,9.756684362E0
2.362296309E0,-1.429711580E-1,-5.916253924E-1,9.762416840E0,9.781372292E0
2.364742559E0,-1.118644550E-1,-5.916253924E-1,9.743274689E0,9.761861294E0
2.367188653E0,-1.310070455E-1,-5.988038778E-1,9.745667458E0,9.764925147E0
2.369634903E0,-1.381855011E-1,-5.820540786E-1,9.755238533E0,9.773564397E0
2.372081882E0,-1.310070455E-1,-6.035895348E-1,9.760024071E0,9.779547691E0
2.374527194E0,-1.429711580E-1,-6.083751321E-1,9.748060226E0,9.768072442E0
2.376973444E0,-1.381855011E-1,-5.892325640E-1,9.752845764E0,9.771606354E0
2.379420424E0,-1.166501045E-1,-6.083751321E-1,9.752845764E0,9.772498557E0
2.381865736E0,-1.094716340E-1,-5.940182209E-1,9.771988869E0,9.790638801E0
2.384311986E0,-1.477568001E-1,-6.035895348E-1,9.764810562E0,9.784563236E0
2.386758080E0,-1.645065546E-1,-6.059823632E-1,9.757631302E0,9.777813951E0
2.389204330E0,-1.477568001E-1,-5.964110494E-1,9.771988869E0,9.791287181E0
2.391651309E0,-1.453639716E-1,-5.892325640E-1,9.771988869E0,9.790816725E0
2.394096621E0,-1.453639716E-1,-6.035895348E-1,9.771988869E0,9.791691246E0
2.396542871E0,-1.381855011E-1,-5.916253924E-1,9.728918076E0,9.747869652E0
2.398989851E0,-1.381855011E-1,-5.629115105E-1,9.771988869E0,9.789163961E0
2.401435163E0,-1.501496136E-1,-5.700899959E-1,9.764810562E0,9.782590292E0
2.403881413E0,-1.549352705E-1,-5.676971674E-1,9.762416840E0,9.780136377E0
2.406327507E0,-1.238285750E-1,-5.605186820E-1,9.767203331E0,9.784057217E0
2.408773757E0,-1.357926875E-1,-5.533402562E-1,9.774381638E0,9.790973470E0
2.411220736E0,-1.286142170E-1,-5.772684813E-1,9.760024071E0,9.777926691E0
2.413666049E0,-1.333998591E-1,-5.629115105E-1,9.757631302E0,9.774765139E0
2.416112299E0,-1.262213886E-1,-5.605186820E-1,9.762416840E0,9.779309566E0
2.418559278E0,-1.310070455E-1,-5.389832854E-1,9.769596100E0,9.785329518E0
2.421004590E0,-1.357926875E-1,-5.413761139E-1,9.752845764E0,9.768803829E0
2.423450840E0,-1.238285750E-1,-5.461617708E-1,9.760024071E0,9.776077744E0
2.425896934E0,-1.405783296E-1,-5.461617708E-1,9.762416840E0,9.778693036E0
2.428343184E0,-1.310070455E-1,-5.389832854E-1,9.755238533E0,9.770995070E0
2.430790163E0,-1.070788130E-1,-5.389832854E-1,9.760024071E0,9.775481508E0
2.433235476E0,-1.094716340E-1,-5.557330847E-1,9.764810562E0,9.781224290E0
2.435681726E0,-1.142572835E-1,-5.341976285E-1,9.764810562E0,9.780079097E0
2.438128705E0,-1.214357466E-1,-5.533402562E-1,9.762416840E0,9.778840147E0
2.440574017E0,-1.022931710E-1,-5.389832854E-1,9.760024071E0,9.775430258E0
2.443020215E0,-1.094716340E-1,-5.294120312E-1,9.767203331E0,9.782153242E0
2.445466413E0,-8.793623000E-2,-5.437689424E-1,9.764810562E0,9.780334491E0
2.447912611E0,-1.166501045E-1,-5.533402562E-1,9.757631302E0,9.774004364E0
2.450359590E0,-1.142572835E-1,-5.318048596E-1,9.740881920E0,9.756057181E0
2.452804903E0,-1.142572835E-1,-5.461617708E-1,9.748060226E0,9.764016878E0
2.455251153E0,-9.272187948E-2,-5.461617708E-1,9.743274689E0,9.759010794E0
2.457698080E0,-8.315058798E-2,-5.318048596E-1,9.745667458E0,9.760520715E0
2.460143444E0,-1.022931710E-1,-5.365904570E-1,9.748060226E0,9.763353491E0
2.462589642E0,-9.272187948E-2,-5.533402562E-1,9.755238533E0,9.771359252E0
2.465035840E0,-8.793623000E-2,-5.341976285E-1,9.731310844E0,9.746358840E0
2.467482038E0,-1.046859920E-1,-5.461617708E-1,9.740881920E0,9.756742920E0
2.469928965E0,-8.793623000E-2,-5.318048596E-1,9.757631302E0,9.772508266E0
2.472374330E0,-1.022931710E-1,-5.365904570E-1,9.745667458E0,9.760964471E0
2.474820528E0,-9.272187948E-2,-5.365904570E-1,9.755238533E0,9.770425042E0
2.477267507E0,-1.094716340E-1,-5.461617708E-1,9.728918076E0,9.744851135E0
2.479712871E0,-9.032905847E-2,-5.485545993E-1,9.752845764E0,9.768678108E0
2.482159069E0,-1.166501045E-1,-5.557330847E-1,9.728918076E0,9.745475536E0
2.484605267E0,-7.836493850E-2,-5.389832854E-1,9.740881920E0,9.756096792E0
2.487051465E0,-8.554340899E-2,-5.557330847E-1,9.740881920E0,9.757096777E0
2.489498392E0,-1.070788130E-1,-5.533402562E-1,9.774381638E0,9.790617330E0
2.491943757E0,-1.070788130E-1,-5.629115105E-1,9.760024071E0,9.776830013E0
2.494389955E0,-1.022931710E-1,-5.413761139E-1,9.743274689E0,9.758839770E0
2.496836934E0,-1.070788130E-1,-5.461617708E-1,9.764810562E0,9.780658662E0
2.499282246E0,-1.022931710E-1,-5.485545993E-1,9.776774406E0,9.792685731E0
2.501728496E0,-1.070788130E-1,-5.485545993E-1,9.769596100E0,9.785570294E0
2.504174694E0,-1.142572835E-1,-5.724828243E-1,9.748060226E0,9.765524537E0
2.506620788E0,-1.118644550E-1,-5.629115105E-1,9.783952713E0,9.800771078E0
2.509067819E0,-1.094716340E-1,-5.605186820E-1,9.752845764E0,9.769552995E0
2.511513184E0,-1.142572835E-1,-5.509474277E-1,9.760024071E0,9.776229726E0
2.513959382E0,-1.214357466E-1,-5.485545993E-1,9.762416840E0,9.778570516E0
2.516406361E0,-1.238285750E-1,-5.581258535E-1,9.769596100E0,9.786309107E0
2.518851674E0,-1.286142170E-1,-5.748756528E-1,9.771988869E0,9.789728805E0
2.521297924E0,-1.238285750E-1,-5.389832854E-1,9.767203331E0,9.782847101E0
2.523744121E0,-1.286142170E-1,-5.557330847E-1,9.764810562E0,9.781457263E0
2.526190215E0,-1.310070455E-1,-5.581258535E-1,9.743274689E0,9.760126484E0
2.528637246E0,-1.166501045E-1,-5.533402562E-1,9.750452995E0,9.766838091E0
2.531082559E0,-1.333998591E-1,-5.724828243E-1,9.752845764E0,9.770544130E0
2.533528809E0,-1.405783296E-1,-5.772684813E-1,9.743274689E0,9.761372999E0
2.535975788E0,-1.333998591E-1,-5.653043389E-1,9.760024071E0,9.777291771E0
2.538421101E0,-1.238285750E-1,-5.413761139E-1,9.771988869E0,9.787757050E0
2.540867351E0,-1.381855011E-1,-5.581258535E-1,9.745667458E0,9.762614091E0
2.543313549E0,-1.190429255E-1,-5.533402562E-1,9.762416840E0,9.778810726E0
2.545759642E0,-1.381855011E-1,-5.653043389E-1,9.767203331E0,9.784524778E0
2.548206674E0,-1.310070455E-1,-5.629115105E-1,9.755238533E0,9.772344194E0
2.550651986E0,-1.525424421E-1,-5.676971674E-1,9.779167175E0,9.796818867E0
2.553098236E0,-1.190429255E-1,-5.676971674E-1,9.762416840E0,9.779633625E0
2.555545215E0,-1.262213886E-1,-5.581258535E-1,9.762416840E0,9.779172708E0
2.557990528E0,-1.118644550E-1,-5.653043389E-1,9.748060226E0,9.765078639E0
2.560436778E0,-1.286142170E-1,-5.437689424E-1,9.745667458E0,9.761673037E0
2.562882871E0,-1.142572835E-1,-5.605186820E-1,9.769596100E0,9.786329438E0
2.565329121E0,-1.310070455E-1,-5.700899959E-1,9.774381638E0,9.791869170E0
2.567776101E0,-1.238285750E-1,-5.461617708E-1,9.760024071E0,9.776077744E0
2.570221413E0,-1.166501045E-1,-5.653043389E-1,9.762416840E0,9.779466181E0
2.572667663E0,-1.214357466E-1,-5.653043389E-1,9.795916557E0,9.812965751E0
2.575114642E0,-1.477568001E-1,-5.629115105E-1,9.738489151E0,9.755863487E0
2.577559955E0,-1.333998591E-1,-5.748756528E-1,9.757631302E0,9.775461430E0
2.580006205E0,-1.070788130E-1,-5.629115105E-1,9.750452995E0,9.767275406E0
2.582452299E0,-1.238285750E-1,-5.772684813E-1,9.743274689E0,9.761146146E0
2.584898549E0,-1.046859920E-1,-5.557330847E-1,9.757631302E0,9.774004657E0
2.587345528E0,-1.238285750E-1,-5.724828243E-1,9.752845764E0,9.770418138E0
2.589790840E0,-1.118644550E-1,-5.676971674E-1,9.752845764E0,9.769994587E0
2.592237090E0,-8.315058798E-2,-5.533402562E-1,9.757631302E0,9.773661959E0
2.594684069E0,-1.070788130E-1,-5.700899959E-1,9.762416840E0,9.779634504E0
2.597129382E0,-1.118644550E-1,-5.557330847E-1,9.721739769E0,9.738253286E0
2.599575632E0,-1.070788130E-1,-5.557330847E-1,9.752845764E0,9.769253074E0
2.602021726E0,-1.070788130E-1,-5.533402562E-1,9.752845764E0,9.769117248E0
2.604467976E0,-9.990034252E-2,-5.676971674E-1,9.755238533E0,9.772253527E0
2.606914955E0,-1.094716340E-1,-5.700899959E-1,9.757631302E0,9.774883900E0
2.609360267E0,-1.022931710E-1,-5.700899959E-1,9.743274689E0,9.760474792E0
2.611806517E0,-8.793623000E-2,-5.605186820E-1,9.767203331E0,9.783668784E0
2.614253496E0,-9.032905847E-2,-5.653043389E-1,9.745667458E0,9.762467031E0
2.616698809E0,-9.990034252E-2,-5.772684813E-1,9.736096382E0,9.753706564E0
2.619145007E0,-9.990034252E-2,-5.581258535E-1,9.762416840E0,9.778868396E0
2.621591205E0,-1.022931710E-1,-5.748756528E-1,9.769596100E0,9.787029880E0
2.624037403E0,-1.118644550E-1,-5.629115105E-1,9.755238533E0,9.772106317E0
2.626484382E0,-1.118644550E-1,-5.796613097E-1,9.755238533E0,9.773085476E0
2.628929694E0,-1.070788130E-1,-5.844469070E-1,9.728918076E0,9.747045244E0
2.631375944E0,-1.142572835E-1,-5.796613097E-1,9.755238533E0,9.773113158E0
2.633822871E0,-1.286142170E-1,-5.653043389E-1,9.757631302E0,9.774839090E0
2.636268236E0,-9.990034252E-2,-5.365904570E-1,9.740881920E0,9.756161641E0
2.638714434E0,-1.190429255E-1,-5.413761139E-1,9.731310844E0,9.747085209E0
2.641160632E0,-1.286142170E-1,-5.485545993E-1,9.738489151E0,9.754774457E0
2.643606830E0,-9.272187948E-2,-5.413761139E-1,9.745667458E0,9.761133112E0
2.646053757E0,-1.070788130E-1,-5.461617708E-1,9.750452995E0,9.766324394E0
2.648499121E0,-9.750752151E-2,-5.509474277E-1,9.743274689E0,9.759326434E0
2.650945319E0,-1.190429255E-1,-5.437689424E-1,9.748060226E0,9.763940499E0
2.653392299E0,-1.357926875E-1,-5.270192027E-1,9.750452995E0,9.765629652E0
2.655837663E0,-1.094716340E-1,-5.365904570E-1,9.757631302E0,9.772987362E0
2.658283861E0,-1.214357466E-1,-5.341976285E-1,9.750452995E0,9.765830603E0
2.660730059E0,-1.453639716E-1,-5.461617708E-1,9.764810562E0,9.781152727E0
2.663176153E0,-1.286142170E-1,-5.318048596E-1,9.771988869E0,9.787294032E0
2.665623184E0,-1.286142170E-1,-5.341976285E-1,9.771988869E0,9.787424338E0
2.668068549E0,-1.262213886E-1,-5.461617708E-1,9.774381638E0,9.790442325E0
2.670514746E0,-1.333998591E-1,-5.341976285E-1,9.767203331E0,9.782710439E0
2.672961726E0,-1.333998591E-1,-5.102694035E-1,9.764810562E0,9.779043701E0
2.675407038E0,-1.357926875E-1,-5.174478889E-1,9.760024071E0,9.774674513E0
2.677853288E0,-1.405783296E-1,-5.413761139E-1,9.748060226E0,9.764093841E0
2.680299486E0,-1.310070455E-1,-5.078766346E-1,9.757631302E0,9.771717871E0
2.682745580E0,-1.405783296E-1,-5.270192027E-1,9.755238533E0,9.770475441E0
2.685192611E0,-1.333998591E-1,-5.150550604E-1,9.748060226E0,9.762569099E0
2.687637976E0,-1.286142170E-1,-5.389832854E-1,9.762416840E0,9.778130044E0
2.690084174E0,-1.357926875E-1,-5.174478889E-1,9.752845764E0,9.767506973E0
2.692531153E0,-1.333998591E-1,-5.222335458E-1,9.750452995E0,9.765339575E0
2.694976465E0,-1.262213886E-1,-5.437689424E-1,9.750452995E0,9.766419514E0
2.697422715E0,-1.166501045E-1,-5.270192027E-1,9.764810562E0,9.779717879E0
2.699868913E0,-1.190429255E-1,-5.270192027E-1,9.745667458E0,9.760632902E0
2.702315007E0,-1.094716340E-1,-5.294120312E-1,9.755238533E0,9.770206752E0
2.704762038E0,-1.262213886E-1,-5.246263742E-1,9.769596100E0,9.784486324E0
2.707207351E0,-1.286142170E-1,-5.318048596E-1,9.750452995E0,9.765791910E0
2.709653601E0,-1.214357466E-1,-5.246263742E-1,9.757631302E0,9.772479117E0
2.712100580E0,-1.046859920E-1,-5.365904570E-1,9.760024071E0,9.775323950E0
2.714545892E0,-1.070788130E-1,-5.389832854E-1,9.757631302E0,9.773092524E0
2.716992142E0,-1.142572835E-1,-5.437689424E-1,9.750452995E0,9.766272216E0
2.719438236E0,-9.511470050E-2,-5.461617708E-1,9.748060226E0,9.763811636E0
2.721884486E0,-1.070788130E-1,-5.413761139E-1,9.752845764E0,9.768446881E0
2.724331465E0,-9.511470050E-2,-5.246263742E-1,9.752845764E0,9.767409080E0
2.726776778E0,-1.094716340E-1,-5.461617708E-1,9.760024071E0,9.775906433E0
2.729223028E0,-1.094716340E-1,-5.700899959E-1,9.728918076E0,9.746221502E0
2.731670007E0,-1.022931710E-1,-5.581258535E-1,9.757631302E0,9.774115663E0
2.734115319E0,-9.272187948E-2,-5.629115105E-1,9.755238533E0,9.771905932E0
2.736561569E0,-9.750752151E-2,-5.629115105E-1,9.748060226E0,9.764786494E0
2.739007663E0,-1.094716340E-1,-5.629115105E-1,9.755238533E0,9.772079218E0
2.741453913E0,-9.750752151E-2,-5.533402562E-1,9.743274689E0,9.759461810E0
2.743900892E0,-9.511470050E-2,-5.676971674E-1,9.736096382E0,9.753096926E0
2.746346205E0,-6.879365444E-2,-5.892325640E-1,9.740881920E0,9.758929663E0
2.748792455E0,-9.990034252E-2,-5.629115105E-1,9.762416840E0,9.779142703E0
2.751239434E0,-9.032905847E-2,-6.011967063E-1,9.757631302E0,9.776551818E0
2.753684746E0,-1.022931710E-1,-6.059823632E-1,9.750452995E0,9.769801028E0
2.756130996E0,-9.032905847E-2,-6.011967063E-1,9.755238533E0,9.774163681E0
2.758577090E0,-9.990034252E-2,-6.035895348E-1,9.771988869E0,9.791121838E0
2.761023340E0,-9.990034252E-2,-5.988038778E-1,9.757631302E0,9.776498084E0
2.763470319E0,-9.990034252E-2,-6.107679605E-1,9.760024071E0,9.779626140E0
2.765915632E0,-8.793623000E-2,-5.988038778E-1,9.764810562E0,9.783548650E0
2.768361882E0,-8.793623000E-2,-5.892325640E-1,9.760024071E0,9.778189897E0
2.770808861E0,-9.272187948E-2,-5.892325640E-1,9.760024071E0,9.778234106E0
2.773254174E0,-1.142572835E-1,-5.820540786E-1,9.755238533E0,9.773255369E0
2.775700371E0,-1.070788130E-1,-5.988038778E-1,9.769596100E0,9.788515715E0
2.778146569E0,-1.070788130E-1,-5.724828243E-1,9.767203331E0,9.784552282E0
2.780592767E0,-1.190429255E-1,-5.892325640E-1,9.755238533E0,9.773742634E0
2.783039746E0,-1.405783296E-1,-5.796613097E-1,9.767203331E0,9.785398838E0
2.785485059E0,-1.142572835E-1,-5.724828243E-1,9.755238533E0,9.772690016E0
2.787931309E0,-1.142572835E-1,-5.892325640E-1,9.745667458E0,9.764132523E0
2.790378236E0,-1.381855011E-1,-5.796613097E-1,9.752845764E0,9.771033874E0
2.792823601E0,-1.381855011E-1,-5.485545993E-1,9.760024071E0,9.776404106E0
2.795269799E0,-1.310070455E-1,-5.820540786E-1,9.757631302E0,9.775853846E0
2.797715996E0,-1.286142170E-1,-5.629115105E-1,9.743274689E0,9.760369493E0
2.800162194E0,-1.405783296E-1,-5.557330847E-1,9.752845764E0,9.769677683E0
2.802609174E0,-1.477568001E-1,-5.557330847E-1,9.745667458E0,9.762617760E0
2.805054486E0,-1.357926875E-1,-5.461617708E-1,9.745667458E0,9.761903837E0
2.807500684E0,-1.645065546E-1,-5.557330847E-1,9.771988869E0,9.789160746E0
2.809947663E0,-1.262213886E-1,-5.365904570E-1,9.752845764E0,9.768411419E0
2.812393028E0,-1.142572835E-1,-5.413761139E-1,9.743274689E0,9.758972512E0
2.814839226E0,-1.429711580E-1,-5.461617708E-1,9.752845764E0,9.769172633E0
2.817285424E0,-1.597209126E-1,-5.437689424E-1,9.748060226E0,9.764521166E0
2.819731621E0,-1.429711580E-1,-5.270192027E-1,9.762416840E0,9.777677257E0
2.822178549E0,-1.453639716E-1,-5.174478889E-1,9.769596100E0,9.784369727E0
2.824623913E0,-1.477568001E-1,-5.222335458E-1,9.774381638E0,9.789437999E0
2.827070111E0,-1.310070455E-1,-5.413761139E-1,9.755238533E0,9.771127355E0
2.829517090E0,-1.262213886E-1,-5.341976285E-1,9.769596100E0,9.785004185E0
2.831962403E0,-1.142572835E-1,-5.461617708E-1,9.750452995E0,9.766405737E0
2.834408653E0,-1.333998591E-1,-5.054838061E-1,9.764810562E0,9.778795157E0
2.836854851E0,-1.046859920E-1,-5.485545993E-1,9.764810562E0,9.780766668E0
2.839300944E0,-1.405783296E-1,-5.294120312E-1,9.743274689E0,9.758659797E0
2.841747976E0,-1.286142170E-1,-5.389832854E-1,9.776774406E0,9.792464572E0
2.844193340E0,-1.142572835E-1,-5.246263742E-1,9.740881920E0,9.755668513E0
2.846639538E0,-1.070788130E-1,-5.126622319E-1,9.750452995E0,9.764508285E0
2.849086517E0,-1.166501045E-1,-5.485545993E-1,9.733703613E0,9.749846431E0
2.851531830E0,-1.214357466E-1,-5.222335458E-1,9.752845764E0,9.767572627E0
2.853978080E0,-1.190429255E-1,-5.461617708E-1,9.755238533E0,9.771240593E0
2.856424278E0,-1.118644550E-1,-5.270192027E-1,9.743274689E0,9.758158871E0
2.858870371E0,-1.118644550E-1,-5.341976285E-1,9.745667458E0,9.760938221E0
2.861317403E0,-8.554340899E-2,-5.365904570E-1,9.738489151E0,9.753636139E0
2.863762715E0,-1.046859920E-1,-5.581258535E-1,9.779167175E0,9.795640575E0
2.866208965E0,-9.750752151E-2,-5.533402562E-1,9.762416840E0,9.778572273E0
2.868655944E0,-9.750752151E-2,-5.533402562E-1,9.750452995E0,9.766628219E0
2.871101257E0,-1.022931710E-1,-5.557330847E-1,9.748060226E0,9.764424270E0
2.873547507E0,-1.070788130E-1,-5.341976285E-1,9.740881920E0,9.756106475E0
2.875993705E0,-9.750752151E-2,-5.198407173E-1,9.757631302E0,9.771955317E0
2.878439799E0,-7.357929647E-2,-5.365904570E-1,9.783952713E0,9.798932285E0
2.880886830E0,-9.990034252E-2,-5.509474277E-1,9.736096382E0,9.752184161E0
2.883332142E0,-9.750752151E-2,-5.509474277E-1,9.752845764E0,9.768881783E0
2.885778392E0,-9.032905847E-2,-5.485545993E-1,9.762416840E0,9.778233687E0
2.888225371E0,-7.357929647E-2,-5.461617708E-1,9.745667458E0,9.761236642E0
2.890670684E0,-8.315058798E-2,-5.437689424E-1,9.745667458E0,9.761179892E0
2.893116934E0,-9.511470050E-2,-5.557330847E-1,9.755238533E0,9.771518045E0
2.895563028E0,-1.166501045E-1,-5.676971674E-1,9.760024071E0,9.777216229E0
2.898009278E0,-9.032905847E-2,-5.581258535E-1,9.745667458E0,9.762053985E0
2.900456257E0,-9.750752151E-2,-5.581258535E-1,9.750452995E0,9.766900522E0
2.902901569E0,-9.272187948E-2,-5.485545993E-1,9.750452995E0,9.766311643E0
2.905347819E0,-9.990034252E-2,-5.581258535E-1,9.740881920E0,9.757369785E0
2.907794799E0,-1.022931710E-1,-5.581258535E-1,9.764810562E0,9.781282824E0
2.910240111E0,-1.214357466E-1,-5.700899959E-1,9.757631302E0,9.775025211E0
2.912686361E0,-1.118644550E-1,-5.700899959E-1,9.764810562E0,9.782077569E0
2.915132455E0,-1.142572835E-1,-5.653043389E-1,9.743274689E0,9.760329164E0
2.917578705E0,-9.750752151E-2,-5.533402562E-1,9.752845764E0,9.769017026E0
2.920025684E0,-1.310070455E-1,-5.533402562E-1,9.769596100E0,9.786130810E0
2.922470996E0,-1.094716340E-1,-5.700899959E-1,9.752845764E0,9.770106813E0
2.924917246E0,-1.166501045E-1,-5.700899959E-1,9.755238533E0,9.772578405E0
2.927364226E0,-1.333998591E-1,-5.820540786E-1,9.752845764E0,9.771109608E0
2.929809538E0,-1.262213886E-1,-5.844469070E-1,9.757631302E0,9.775933646E0
2.932255788E0,-1.310070455E-1,-5.820540786E-1,9.745667458E0,9.763912330E0
2.934701882E0,-1.238285750E-1,-5.844469070E-1,9.750452995E0,9.768738164E0
2.937148132E0,-1.214357466E-1,-5.820540786E-1,9.757631302E0,9.775730265E0
2.939595111E0,-1.453639716E-1,-5.653043389E-1,9.748060226E0,9.765519846E0
2.942040424E0,-1.238285750E-1,-5.700899959E-1,9.750452995E0,9.767889728E0
2.944486674E0,-1.142572835E-1,-5.676971674E-1,9.762416840E0,9.779576543E0
2.946933601E0,-1.310070455E-1,-5.653043389E-1,9.781559944E0,9.798757410E0
2.949378965E0,-1.381855011E-1,-5.724828243E-1,9.767203331E0,9.784942142E0
2.951825163E0,-1.668993831E-1,-5.700899959E-1,9.779167175E0,9.797191876E0
2.954271361E0,-1.477568001E-1,-5.676971674E-1,9.748060226E0,9.765694564E0
2.956717559E0,-1.405783296E-1,-5.581258535E-1,9.764810562E0,9.781758127E0
2.959164538E0,-1.238285750E-1,-5.581258535E-1,9.748060226E0,9.764810094E0
2.961609851E0,-1.621137410E-1,-5.605186820E-1,9.776774406E0,9.794170708E0
2.964056101E0,-1.333998591E-1,-5.772684813E-1,9.752845764E0,9.770825703E0
2.966503028E0,-1.477568001E-1,-5.629115105E-1,9.760024071E0,9.777360140E0
2.968948392E0,-1.094716340E-1,-5.724828243E-1,9.740881920E0,9.758304217E0
2.971394590E0,-1.142572835E-1,-5.653043389E-1,9.767203331E0,9.784216097E0
2.973840788E0,-1.286142170E-1,-5.533402562E-1,9.748060226E0,9.764599594E0
2.976286986E0,-1.405783296E-1,-5.748756528E-1,9.757631302E0,9.775562025E0
2.978733913E0,-1.214357466E-1,-5.557330847E-1,9.752845764E0,9.769420986E0
2.981179278E0,-1.453639716E-1,-5.676971674E-1,9.779167175E0,9.796709723E0
2.983625476E0,-1.357926875E-1,-5.533402562E-1,9.771988869E0,9.788584757E0
2.986072455E0,-1.094716340E-1,-5.605186820E-1,9.757631302E0,9.774330353E0
2.988517819E0,-1.022931710E-1,-5.700899959E-1,9.764810562E0,9.781972797E0
2.990964017E0,-1.142572835E-1,-5.533402562E-1,9.752845764E0,9.769198568E0
2.993410215E0,-1.238285750E-1,-5.413761139E-1,9.776774406E0,9.792534882E0
2.995856309E0,-1.046859920E-1,-5.461617708E-1,9.750452995E0,9.766298452E0
2.998303340E0,-1.262213886E-1,-5.413761139E-1,9.750452995E0,9.766286579E0
3.000748705E0,-1.214357466E-1,-5.533402562E-1,9.755238533E0,9.771673906E0
3.003194903E0,-1.022931710E-1,-5.485545993E-1,9.745667458E0,9.761629487E0
3.005641882E0,-1.142572835E-1,-5.485545993E-1,9.750452995E0,9.766539842E0
3.008087246E0,-1.070788130E-1,-5.389832854E-1,9.771988869E0,9.787427410E0
3.010533444E0,-1.166501045E-1,-5.461617708E-1,9.779167175E0,9.795101356E0
3.012979642E0,-1.046859920E-1,-5.485545993E-1,9.769596100E0,9.785544403E0
3.015425736E0,-1.094716340E-1,-5.318048596E-1,9.762416840E0,9.777503925E0
3.017872767E0,-1.046859920E-1,-5.509474277E-1,9.750452995E0,9.766567249E0
3.020318132E0,-9.750752151E-2,-5.533402562E-1,9.755238533E0,9.771405835E0
3.022764330E0,-9.032905847E-2,-5.413761139E-1,9.738489151E0,9.753943735E0
3.025211309E0,-1.046859920E-1,-5.246263742E-1,9.757631302E0,9.772285332E0
3.027656621E0,-1.070788130E-1,-5.413761139E-1,9.776774406E0,9.792337400E0
3.030102871E0,-9.990034252E-2,-5.485545993E-1,9.755238533E0,9.771160170E0
3.032549069E0,-1.142572835E-1,-5.389832854E-1,9.726525307E0,9.742117442E0
3.034995163E0,-1.310070455E-1,-5.389832854E-1,9.740881920E0,9.756661642E0
3.037442194E0,-8.075776696E-2,-5.318048596E-1,9.740881920E0,9.755722362E0
3.039887507E0,-9.032905847E-2,-5.365904570E-1,9.769596100E0,9.784737943E0
3.042333757E0,-6.879365444E-2,-5.222335458E-1,9.745667458E0,9.759892143E0
3.044780736E0,-9.032905847E-2,-5.461617708E-1,9.750452995E0,9.766155110E0
3.047226049E0,-1.070788130E-1,-5.533402562E-1,9.748060226E0,9.764339685E0
3.049672299E0,-8.554340899E-2,-5.581258535E-1,9.745667458E0,9.762010876E0
3.052118392E0,-9.032905847E-2,-5.365904570E-1,9.764810562E0,9.779959814E0
3.054564642E0,-1.022931710E-1,-5.318048596E-1,9.762416840E0,9.777426187E0
3.057011621E0,-9.272187948E-2,-5.461617708E-1,9.752845764E0,9.768566452E0
3.059456934E0,-8.075776696E-2,-5.509474277E-1,9.779167175E0,9.795007684E0
3.061903184E0,-1.022931710E-1,-5.437689424E-1,9.762416840E0,9.778084225E0
3.064350163E0,-8.554340899E-2,-5.653043389E-1,9.738489151E0,9.755257947E0
3.066795476E0,-8.075776696E-2,-5.581258535E-1,9.750452995E0,9.766747662E0
3.069241726E0,-8.793623000E-2,-5.676971674E-1,9.774381638E0,9.791248605E0
3.071687819E0,-1.022931710E-1,-5.844469070E-1,9.738489151E0,9.756547188E0
3.074134069E0,-1.070788130E-1,-5.605186820E-1,9.752845764E0,9.769526476E0
3.076581049E0,-1.046859920E-1,-5.653043389E-1,9.750452995E0,9.767387663E0
3.079026361E0,-1.262213886E-1,-5.605186820E-1,9.752845764E0,9.769755039E0
3.081472611E0,-1.262213886E-1,-5.772684813E-1,9.760024071E0,9.777895510E0
3.083919590E0,-1.429711580E-1,-5.820540786E-1,9.760024071E0,9.778409767E0
3.086364903E0,-1.405783296E-1,-5.940182209E-1,9.769596100E0,9.788647908E0
3.088811153E0,-1.381855011E-1,-5.796613097E-1,9.733703613E0,9.751927425E0
3.091257246E0,-1.501496136E-1,-5.892325640E-1,9.762416840E0,9.781335413E0
3.093703496E0,-1.501496136E-1,-5.868397355E-1,9.771988869E0,9.790745234E0
3.096150476E0,-1.262213886E-1,-6.083751321E-1,9.769596100E0,9.789333996E0
3.098595788E0,-1.357926875E-1,-5.916253924E-1,9.755238533E0,9.774105539E0
3.101042038E0,-1.381855011E-1,-5.844469070E-1,9.762416840E0,9.780871943E0
3.103489017E0,-1.525424421E-1,-5.916253924E-1,9.743274689E0,9.762412174E0
3.105934330E0,-1.381855011E-1,-5.916253924E-1,9.767203331E0,9.786080765E0
3.108380528E0,-1.501496136E-1,-5.748756528E-1,9.762416840E0,9.780481045E0
3.110826726E0,-1.573280841E-1,-5.868397355E-1,9.769596100E0,9.788469796E0
3.113272924E0,-1.549352705E-1,-5.724828243E-1,9.774381638E0,9.792358139E0
3.115719903E0,-1.381855011E-1,-5.653043389E-1,9.764810562E0,9.782136246E0
3.118165215E0,-1.405783296E-1,-5.605186820E-1,9.762416840E0,9.779505407E0
3.120611465E0,-1.477568001E-1,-5.748756528E-1,9.767203331E0,9.785222276E0
3.123058392E0,-1.357926875E-1,-5.700899959E-1,9.767203331E0,9.784768938E0
3.125503757E0,-1.357926875E-1,-5.629115105E-1,9.776774406E0,9.793907638E0
3.127949955E0,-1.310070455E-1,-5.437689424E-1,9.769596100E0,9.785594283E0
3.130396153E0,-1.381855011E-1,-5.485545993E-1,9.738489151E0,9.754905347E0
3.132842351E0,-1.310070455E-1,-5.629115105E-1,9.733703613E0,9.750847053E0
3.135289330E0,-1.022931710E-1,-5.485545993E-1,9.767203331E0,9.783130222E0
3.137734642E0,-1.238285750E-1,-5.485545993E-1,9.752845764E0,9.769045305E0
3.140180840E0,-1.118644550E-1,-5.437689424E-1,9.757631302E0,9.773411223E0
3.142627819E0,-1.190429255E-1,-5.605186820E-1,9.762416840E0,9.779219548E0
3.145073184E0,-1.357926875E-1,-5.485545993E-1,9.769596100E0,9.785926617E0
3.147519382E0,-1.190429255E-1,-5.581258535E-1,9.776774406E0,9.793415823E0
3.149965580E0,-9.272187948E-2,-5.557330847E-1,9.755238533E0,9.771495047E0
3.152411674E0,-1.142572835E-1,-5.557330847E-1,9.771988869E0,9.788445251E0
3.154858705E0,-9.990034252E-2,-5.605186820E-1,9.767203331E0,9.783783633E0
3.157304069E0,-1.046859920E-1,-5.557330847E-1,9.762416840E0,9.778782182E0
3.159750267E0,-1.166501045E-1,-5.724828243E-1,9.764810562E0,9.782273210E0
3.162197246E0,-1.214357466E-1,-5.724828243E-1,9.760024071E0,9.777553533E0
3.164642559E0,-1.022931710E-1,-5.700899959E-1,9.752845764E0,9.770029017E0
3.167088809E0,-1.142572835E-1,-5.724828243E-1,9.745667458E0,9.763136049E0
3.169535007E0,-1.357926875E-1,-5.676971674E-1,9.745667458E0,9.763132383E0
3.171981101E0,-1.214357466E-1,-5.676971674E-1,9.750452995E0,9.767720324E0
3.174428132E0,-1.094716340E-1,-5.509474277E-1,9.743274689E0,9.759453303E0
3.176873496E0,-1.262213886E-1,-5.700899959E-1,9.743274689E0,9.760754894E0
3.179319694E0,-1.262213886E-1,-5.796613097E-1,9.752845764E0,9.770871997E0
3.181766674E0,-1.214357466E-1,-5.796613097E-1,9.750452995E0,9.768422979E0
3.184211986E0,-1.286142170E-1,-5.413761139E-1,9.767203331E0,9.783040970E0
3.186658236E0,-1.357926875E-1,-5.461617708E-1,9.757631302E0,9.773847807E0
3.189104434E0,-1.310070455E-1,-5.485545993E-1,9.752845764E0,9.769138933E0
3.191550528E0,-1.310070455E-1,-5.629115105E-1,9.750452995E0,9.767567037E0
3.193997559E0,-1.046859920E-1,-5.581258535E-1,9.757631302E0,9.774140998E0
3.196442871E0,-9.032905847E-2,-5.533402562E-1,9.764810562E0,9.780893113E0
3.198889121E0,-9.990034252E-2,-5.389832854E-1,9.750452995E0,9.765849511E0
3.201336101E0,-7.836493850E-2,-5.318048596E-1,9.750452995E0,9.765259397E0
3.203781413E0,-1.022931710E-1,-5.174478889E-1,9.736096382E0,9.750373786E0
3.206227663E0,-9.032905847E-2,-5.437689424E-1,9.769596100E0,9.785134233E0
3.208673861E0,-7.836493850E-2,-5.318048596E-1,9.779167175E0,9.793930167E0
3.211119955E0,-9.272187948E-2,-5.270192027E-1,9.779167175E0,9.793796875E0
3.213566986E0,-8.793623000E-2,-5.246263742E-1,9.750452995E0,9.764952597E0
3.216012299E0,-8.315058798E-2,-5.222335458E-1,9.745667458E0,9.760003898E0
3.218458549E0,-7.836493850E-2,-5.198407173E-1,9.755238533E0,9.769393751E0
3.220905528E0,-9.750752151E-2,-5.174478889E-1,9.769596100E0,9.783775753E0
3.223350840E0,-6.640082598E-2,-5.246263742E-1,9.783952713E0,9.798233136E0
3.225797090E0,-8.554340899E-2,-5.222335458E-1,9.776774406E0,9.791085912E0
3.228243184E0,-9.990034252E-2,-5.270192027E-1,9.752845764E0,9.767585670E0
3.230689434E0,-9.032905847E-2,-5.246263742E-1,9.750452995E0,9.764974439E0
3.233136413E0,-1.190429255E-1,-5.246263742E-1,9.748060226E0,9.762893128E0
3.235581726E0,-1.022931710E-1,-5.341976285E-1,9.760024071E0,9.775167562E0
3.238027976E0,-1.238285750E-1,-5.318048596E-1,9.748060226E0,9.763341032E0
3.240474955E0,-1.286142170E-1,-5.437689424E-1,9.755238533E0,9.771228434E0
3.242920267E0,-1.310070455E-1,-5.413761139E-1,9.750452995E0,9.766349602E0
3.245366517E0,-1.310070455E-1,-5.485545993E-1,9.745667458E0,9.761972607E0
3.247812611E0,-1.190429255E-1,-5.557330847E-1,9.743274689E0,9.759836686E0
3.250258861E0,-1.525424421E-1,-5.557330847E-1,9.750452995E0,9.767468560E0
3.252705840E0,-1.357926875E-1,-5.653043389E-1,9.745667458E0,9.762993539E0
3.255151153E0,-1.310070455E-1,-5.796613097E-1,9.750452995E0,9.768546652E0
3.257597403E0,-1.477568001E-1,-5.581258535E-1,9.752845764E0,9.769920012E0
3.260044382E0,-1.453639716E-1,-5.700899959E-1,9.760024071E0,9.777740186E0
3.262489694E0,-1.525424421E-1,-5.748756528E-1,9.755238533E0,9.773353061E0
3.264935944E0,-1.405783296E-1,-5.772684813E-1,9.745667458E0,9.763761333E0
3.267382038E0,-1.381855011E-1,-5.581258535E-1,9.767203331E0,9.784112663E0
3.269828288E0,-1.286142170E-1,-5.748756528E-1,9.731310844E0,9.749124801E0
3.272275267E0,-1.357926875E-1,-5.868397355E-1,9.748060226E0,9.766652380E0
3.274720580E0,-1.214357466E-1,-5.748756528E-1,9.762416840E0,9.780082372E0
3.277166830E0,-1.286142170E-1,-5.772684813E-1,9.760024071E0,9.777926691E0
3.279613757E0,-1.429711580E-1,-5.820540786E-1,9.745667458E0,9.764080187E0
3.282059121E0,-1.190429255E-1,-5.820540786E-1,9.764810562E0,9.782866834E0
3.284505319E0,-1.070788130E-1,-5.748756528E-1,9.769596100E0,9.787081069E0
3.286951517E0,-1.118644550E-1,-5.844469070E-1,9.769596100E0,9.787701456E0
3.289397715E0,-1.166501045E-1,-5.557330847E-1,9.750452995E0,9.766973949E0
3.291844694E0,-1.022931710E-1,-5.676971674E-1,9.757631302E0,9.774666879E0
3.294290007E0,-8.554340899E-2,-5.605186820E-1,9.762416840E0,9.778869128E0
3.296736205E0,-9.511470050E-2,-5.748756528E-1,9.774381638E0,9.791734536E0
3.299183184E0,-9.032905847E-2,-5.533402562E-1,9.757631302E0,9.773725666E0
3.301628549E0,-1.094716340E-1,-5.868397355E-1,9.752845764E0,9.771098475E0
3.304074746E0,-8.793623000E-2,-5.724828243E-1,9.757631302E0,9.774806289E0
3.306520944E0,-9.511470050E-2,-5.676971674E-1,9.750452995E0,9.767428551E0
3.308967142E0,-1.022931710E-1,-5.557330847E-1,9.755238533E0,9.771590556E0
3.311414069E0,-1.262213886E-1,-5.485545993E-1,9.762416840E0,9.778631118E0
3.313859434E0,-1.094716340E-1,-5.581258535E-1,9.752845764E0,9.769416001E0
3.316305632E0,-1.118644550E-1,-5.461617708E-1,9.757631302E0,9.773544647E0
3.318752611E0,-1.286142170E-1,-5.748756528E-1,9.760024071E0,9.777785715E0
3.321197976E0,-1.094716340E-1,-5.724828243E-1,9.755238533E0,9.772635236E0
3.323644174E0,-1.310070455E-1,-5.940182209E-1,9.757631302E0,9.776573485E0
3.326090371E0,-1.190429255E-1,-5.748756528E-1,9.755238533E0,9.772887601E0
3.328536465E0,-1.453639716E-1,-5.629115105E-1,9.740881920E0,9.758216058E0
3.330983496E0,-1.286142170E-1,-5.748756528E-1,9.764810562E0,9.782563516E0
3.333428861E0,-1.405783296E-1,-5.772684813E-1,9.743274689E0,9.761372999E0
3.335875059E0,-1.190429255E-1,-5.868397355E-1,9.733703613E0,9.752104292E0
3.338322038E0,-1.286142170E-1,-5.868397355E-1,9.748060226E0,9.766555210E0
3.340767351E0,-1.262213886E-1,-5.700899959E-1,9.760024071E0,9.777474332E0
3.343213601E0,-1.262213886E-1,-5.629115105E-1,9.757631302E0,9.774669807E0
3.345659799E0,-1.333998591E-1,-5.748756528E-1,9.757631302E0,9.775461430E0
3.348105892E0,-1.262213886E-1,-5.629115105E-1,9.755238533E0,9.772281210E0
3.350552924E0,-1.357926875E-1,-5.629115105E-1,9.752845764E0,9.770020958E0
3.352998288E0,-1.238285750E-1,-5.748756528E-1,9.769596100E0,9.787278656E0
3.355444486E0,-1.190429255E-1,-5.461617708E-1,9.745667458E0,9.761685208E0
3.357891465E0,-1.118644550E-1,-5.653043389E-1,9.752845764E0,9.769855841E0
3.360336778E0,-1.238285750E-1,-5.485545993E-1,9.762416840E0,9.778600524E0
3.362783028E0,-1.046859920E-1,-5.461617708E-1,9.750452995E0,9.766298452E0
3.365229226E0,-1.118644550E-1,-5.365904570E-1,9.757631302E0,9.773014458E0
3.367675319E0,-1.094716340E-1,-5.270192027E-1,9.745667458E0,9.760520861E0
3.370122351E0,-9.272187948E-2,-5.341976285E-1,9.762416840E0,9.777461174E0
3.372567663E0,-1.046859920E-1,-5.150550604E-1,9.752845764E0,9.766997562E0
3.375013913E0,-1.022931710E-1,-5.246263742E-1,9.750452995E0,9.765092439E0
3.377460892E0,-9.511470050E-2,-5.318048596E-1,9.748060226E0,9.763019072E0
3.379906205E0,-9.511470050E-2,-5.198407173E-1,9.755238533E0,9.769542467E0
3.382352455E0,-7.118647546E-2,-5.246263742E-1,9.745667458E0,9.760037630E0
3.384798549E0,-8.075776696E-2,-5.198407173E-1,9.767203331E0,9.781360698E0
3.387244799E0,-9.032905847E-2,-5.485545993E-1,9.743274689E0,9.759122560E0
3.389691778E0,-1.046859920E-1,-5.413761139E-1,9.752845764E0,9.768420945E0
3.392137090E0,-9.990034252E-2,-5.461617708E-1,9.762416840E0,9.778192845E0
3.394583340E0,-9.990034252E-2,-5.365904570E-1,9.736096382E0,9.751383602E0
3.397030319E0,-9.272187948E-2,-5.389832854E-1,9.760024071E0,9.775334787E0
3.399475632E0,-1.190429255E-1,-5.413761139E-1,9.771988869E0,9.787697674E0
3.401921882E0,-1.046859920E-1,-5.629115105E-1,9.750452995E0,9.767249466E0
3.404367976E0,-1.333998591E-1,-5.485545993E-1,9.740881920E0,9.757227488E0
3.406814226E0,-1.214357466E-1,-5.605186820E-1,9.752845764E0,9.769694383E0
3.409261205E0,-1.429711580E-1,-5.772684813E-1,9.736096382E0,9.754242790E0
3.411706517E0,-1.286142170E-1,-5.533402562E-1,9.738489151E0,9.755044746E0
3.414152767E0,-1.549352705E-1,-5.533402562E-1,9.760024071E0,9.776924887E0
3.416599746E0,-1.429711580E-1,-5.605186820E-1,9.757631302E0,9.774762942E0
3.419045059E0,-1.310070455E-1,-5.892325640E-1,9.755238533E0,9.773895677E0
3.421491309E0,-1.190429255E-1,-5.916253924E-1,9.748060226E0,9.766722582E0
3.423937403E0,-1.477568001E-1,-5.748756528E-1,9.750452995E0,9.768502838E0
3.426383653E0,-1.645065546E-1,-5.772684813E-1,9.786345482E0,9.804736569E0
3.428830632E0,-1.429711580E-1,-5.892325640E-1,9.781559944E0,9.800334214E0
3.431275944E0,-1.310070455E-1,-6.083751321E-1,9.760024071E0,9.779844222E0
3.433722194E0,-1.238285750E-1,-5.796613097E-1,9.752845764E0,9.770841379E0
3.436169174E0,-1.333998591E-1,-5.700899959E-1,9.752845764E0,9.770404220E0
3.438614486E0,-1.214357466E-1,-5.748756528E-1,9.769596100E0,9.787248674E0
3.441060736E0,-1.046859920E-1,-5.700899959E-1,9.764810562E0,9.781998113E0
3.443506830E0,-1.166501045E-1,-5.676971674E-1,9.764810562E0,9.781994308E0
3.445953080E0,-1.142572835E-1,-5.629115105E-1,9.762416840E0,9.779299906E0
3.448400059E0,-1.214357466E-1,-5.700899959E-1,9.760024071E0,9.777413723E0
3.450845371E0,-1.022931710E-1,-5.461617708E-1,9.781559944E0,9.797329816E0
3.453291569E0,-1.118644550E-1,-5.557330847E-1,9.760024071E0,9.776472921E0
3.455738549E0,-1.094716340E-1,-5.605186820E-1,9.757631302E0,9.774330353E0
3.458183913E0,-1.118644550E-1,-5.653043389E-1,9.738489151E0,9.755524260E0
3.460630111E0,-1.142572835E-1,-5.557330847E-1,9.774381638E0,9.790833998E0
3.463076309E0,-9.990034252E-2,-5.365904570E-1,9.767203331E0,9.782441940E0
3.465522507E0,-1.118644550E-1,-5.389832854E-1,9.738489151E0,9.754034426E0
3.467969434E0,-9.511470050E-2,-5.318048596E-1,9.743274689E0,9.758240870E0
3.470414799E0,-9.990034252E-2,-5.533402562E-1,9.743274689E0,9.759486010E0
3.472860996E0,-1.046859920E-1,-5.533402562E-1,9.745667458E0,9.761924953E0
3.475307976E0,-1.142572835E-1,-5.365904570E-1,9.728918076E0,9.744374324E0
3.477753340E0,-9.511470050E-2,-5.485545993E-1,9.752845764E0,9.768723532E0
3.480199538E0,-1.118644550E-1,-5.581258535E-1,9.774381638E0,9.790942474E0
3.482645736E0,-1.022931710E-1,-5.413761139E-1,9.745667458E0,9.761228723E0
3.485091830E0,-1.190429255E-1,-5.485545993E-1,9.757631302E0,9.773763451E0
3.487538861E0,-1.262213886E-1,-5.676971674E-1,9.740881920E0,9.758226913E0
3.489984226E0,-1.214357466E-1,-5.676971674E-1,9.752845764E0,9.770108864E0
3.492430424E0,-1.214357466E-1,-5.653043389E-1,9.769596100E0,9.786691146E0
3.494877403E0,-1.405783296E-1,-5.676971674E-1,9.745667458E0,9.763200118E0
3.497322767E0,-1.214357466E-1,-5.605186820E-1,9.738489151E0,9.755362565E0
3.499768965E0,-1.190429255E-1,-5.772684813E-1,9.752845764E0,9.770640236E0
3.502215163E0,-1.214357466E-1,-5.724828243E-1,9.771988869E0,9.789496906E0
3.504661257E0,-1.190429255E-1,-5.653043389E-1,9.748060226E0,9.765163511E0
3.507108288E0,-1.238285750E-1,-5.724828243E-1,9.769596100E0,9.787138400E0
3.509553653E0,-1.429711580E-1,-5.748756528E-1,9.762416840E0,9.780373475E0
3.511999851E0,-1.118644550E-1,-5.605186820E-1,9.767203331E0,9.783913111E0
3.514446830E0,-1.070788130E-1,-5.485545993E-1,9.764810562E0,9.780792572E0
3.516892142E0,-1.094716340E-1,-5.629115105E-1,9.767203331E0,9.784023422E0
3.519338392E0,-1.262213886E-1,-5.557330847E-1,9.779167175E0,9.795758355E0
3.521784590E0,-1.022931710E-1,-5.581258535E-1,9.771988869E0,9.788449050E0
3.524230684E0,-1.046859920E-1,-5.605186820E-1,9.752845764E0,9.769500542E0
3.526677715E0,-8.315058798E-2,-5.485545993E-1,9.740881920E0,9.756669859E0
3.529123028E0,-1.214357466E-1,-5.653043389E-1,9.745667458E0,9.762804404E0
3.531569278E0,-1.022931710E-1,-5.557330847E-1,9.757631302E0,9.773979322E0
3.534016257E0,-9.990034252E-2,-5.485545993E-1,9.762416840E0,9.778326788E0
3.536461569E0,-8.793623000E-2,-5.533402562E-1,9.755238533E0,9.771315012E0
3.538907819E0,-8.315058798E-2,-5.509474277E-1,9.752845764E0,9.768749029E0
3.541353913E0,-9.990034252E-2,-5.581258535E-1,9.757631302E0,9.774090913E0
3.543800163E0,-9.511470050E-2,-5.294120312E-1,9.740881920E0,9.755721628E0
3.546247142E0,-1.094716340E-1,-5.270192027E-1,9.745667458E0,9.760520861E0
3.548692455E0,-1.214357466E-1,-5.437689424E-1,9.728918076E0,9.744859066E0
3.551138705E0,-1.190429255E-1,-5.485545993E-1,9.743274689E0,9.759430569E0
3.553585684E0,-1.118644550E-1,-5.605186820E-1,9.767203331E0,9.783913111E0
3.556030996E0,-1.070788130E-1,-5.581258535E-1,9.750452995E0,9.767000766E0
3.558477246E0,-1.094716340E-1,-5.485545993E-1,9.755238533E0,9.771262714E0
3.560923340E0,-1.094716340E-1,-5.365904570E-1,9.743274689E0,9.758653340E0
3.563369590E0,-1.166501045E-1,-5.461617708E-1,9.738489151E0,9.754489780E0
3.565816569E0,-1.070788130E-1,-5.365904570E-1,9.755238533E0,9.770571837E0
3.568261882E0,-1.429711580E-1,-5.461617708E-1,9.767203331E0,9.783506240E0
3.570708132E0,-1.333998591E-1,-5.485545993E-1,9.748060226E0,9.764393778E0
3.573155111E0,-1.262213886E-1,-5.629115105E-1,9.762416840E0,9.779447007E0
3.575600424E0,-1.310070455E-1,-5.724828243E-1,9.755238533E0,9.772900197E0
3.578046674E0,-1.477568001E-1,-5.557330847E-1,9.764810562E0,9.781727692E0
3.580492767E0,-1.525424421E-1,-5.389832854E-1,9.752845764E0,9.768918706E0
3.582939017E0,-1.525424421E-1,-5.389832854E-1,9.760024071E0,9.776085210E0
3.585385996E0,-1.357926875E-1,-5.653043389E-1,9.774381638E0,9.791656910E0
3.587831309E0,-1.453639716E-1,-5.557330847E-1,9.755238533E0,9.772136347E0
3.590277559E0,-1.525424421E-1,-5.437689424E-1,9.740881920E0,9.757240103E0
3.592724538E0,-1.381855011E-1,-5.653043389E-1,9.752845764E0,9.770192666E0
3.595169851E0,-1.310070455E-1,-5.533402562E-1,9.743274689E0,9.759853992E0
3.597616049E0,-1.405783296E-1,-5.389832854E-1,9.738489151E0,9.754405989E0
3.600062246E0,-1.070788130E-1,-5.557330847E-1,9.724132538E0,9.740588214E0
3.602508444E0,-1.501496136E-1,-4.788636267E-1,9.736096382E0,9.749021902E0
3.604955424E0,-1.286142170E-1,-5.078766346E-1,9.769596100E0,9.783633693E0
3.607400736E0,-1.118644550E-1,-5.772684813E-1,9.764810562E0,9.782498549E0
3.609846986E0,-1.214357466E-1,-5.413761139E-1,9.757631302E0,9.773392623E0
3.612293913E0,-1.262213886E-1,-5.365904570E-1,9.647562027E0,9.663297275E0
3.614739278E0,-8.315058798E-2,-4.887340367E-1,9.693025589E0,9.705695238E0
3.617185476E0,-1.429711580E-1,-6.227321029E-1,9.922736168E0,9.943285628E0
3.619631674E0,-9.272187948E-2,-5.796613097E-1,9.841380119E0,9.858872513E0
3.622077871E0,-1.525424421E-1,-5.485545993E-1,9.714560509E0,9.731231537E0
3.624524799E0,-9.750752151E-2,-5.198407173E-1,9.716953278E0,9.731337168E0
3.626970163E0,-1.046859920E-1,-5.581258535E-1,9.795916557E0,9.812361837E0
3.629416361E0,-1.166501045E-1,-5.581258535E-1,9.793523788E0,9.810108048E0
3.631863340E0,-6.640082598E-2,-5.461617708E-1,9.748060226E0,9.763574137E0
3.634308705E0,-1.238285750E-1,-5.676971674E-1,9.736096382E0,9.753419213E0
3.636754903E0,-1.118644550E-1,-5.772684813E-1,9.721739769E0,9.739505978E0
3.639201101E0,-1.286142170E-1,-5.724828243E-1,9.748060226E0,9.765703066E0
3.641647194E0,-1.142572835E-1,-5.700899959E-1,9.716953278E0,9.734332968E0
3.644094226E0,-1.214357466E-1,-5.892325640E-1,9.714560509E0,9.733171504E0
3.646539590E0,-9.272187948E-2,-5.748756528E-1,9.767203331E0,9.784545992E0
3.648985788E0,-9.032905847E-2,-5.988038778E-1,9.815059662E0,9.833723689E0
3.651432767E0,-1.070788130E-1,-5.772684813E-1,9.855737686E0,9.873209717E0
3.653878132E0,-9.272187948E-2,-6.107679605E-1,9.824630737E0,9.844033928E0
3.656324330E0,-8.554340899E-2,-6.059823632E-1,9.724132538E0,9.743371383E0
3.658770528E0,-1.166501045E-1,-5.557330847E-1,9.657133102E0,9.673813429E0
3.661216621E0,-1.166501045E-1,-5.916253924E-1,9.697811127E0,9.716540974E0
3.663663653E0,-1.166501045E-1,-5.868397355E-1,9.786345482E0,9.804618606E0
3.666109017E0,-1.333998591E-1,-5.940182209E-1,9.788738251E0,9.807652610E0
3.668555215E0,-1.262213886E-1,-5.676971674E-1,9.714560509E0,9.731952414E0
3.671002194E0,-1.046859920E-1,-5.700899959E-1,9.702596664E0,9.719894227E0
3.673447507E0,-1.310070455E-1,-5.940182209E-1,9.762416840E0,9.781349756E0
3.675893757E0,-1.070788130E-1,-5.772684813E-1,9.798309326E0,9.815883578E0
3.678339955E0,-8.315058798E-2,-6.059823632E-1,9.805487633E0,9.824546624E0
3.680786049E0,-9.990034252E-2,-5.653043389E-1,9.795916557E0,9.812722878E0
3.683233080E0,-6.879365444E-2,-5.533402562E-1,9.774381638E0,9.790273459E0
3.685678392E0,-1.381855011E-1,-5.557330847E-1,9.798309326E0,9.815029299E0
3.688124642E0,-9.511470050E-2,-5.629115105E-1,9.740881920E0,9.757596874E0
3.690571621E0,-1.190429255E-1,-5.509474277E-1,9.721739769E0,9.738066462E0
3.693016934E0,-1.238285750E-1,-5.389832854E-1,9.736096382E0,9.751790054E0
3.695463184E0,-9.750752151E-2,-5.437689424E-1,9.743274689E0,9.758923816E0
3.697909278E0,-9.750752151E-2,-5.389832854E-1,9.755238533E0,9.770603335E0
3.700355528E0,-9.990034252E-2,-5.413761139E-1,9.748060226E0,9.763592902E0
3.702802507E0,-1.046859920E-1,-5.365904570E-1,9.740881920E0,9.756211819E0
3.705247819E0,-1.094716340E-1,-5.485545993E-1,9.733703613E0,9.749763188E0
3.707694069E0,-1.022931710E-1,-5.222335458E-1,9.760024071E0,9.774521044E0
3.710141049E0,-9.032905847E-2,-5.341976285E-1,9.786345482E0,9.801330743E0
3.712586361E0,-1.453639716E-1,-5.437689424E-1,9.800702095E0,9.816851680E0
3.715032611E0,-9.511470050E-2,-5.222335458E-1,9.752845764E0,9.767280849E0
3.717478705E0,-1.238285750E-1,-5.222335458E-1,9.740881920E0,9.755656921E0
3.719924955E0,-1.142572835E-1,-5.389832854E-1,9.781559944E0,9.797064491E0
3.722371934E0,-1.022931710E-1,-5.198407173E-1,9.776774406E0,9.791119244E0
3.724817246E0,-1.094716340E-1,-5.246263742E-1,9.755238533E0,9.769948603E0
3.727263496E0,-1.238285750E-1,-5.294120312E-1,9.733703613E0,9.748876686E0
3.729710476E0,-1.286142170E-1,-5.413761139E-1,9.752845764E0,9.768706681E0
3.732155788E0,-1.262213886E-1,-5.222335458E-1,9.702596664E0,9.717460664E0
3.734602038E0,-1.357926875E-1,-5.174478889E-1,9.721739769E0,9.736447818E0
3.737048132E0,-1.238285750E-1,-5.174478889E-1,9.752845764E0,9.767347968E0
3.739494382E0,-1.549352705E-1,-5.341976285E-1,9.771988869E0,9.787805602E0
3.741941361E0,-1.381855011E-1,-5.270192027E-1,9.791131020E0,9.806278148E0
3.744386674E0,-1.118644550E-1,-5.246263742E-1,9.755238533E0,9.769975707E0
3.746832924E0,-1.381855011E-1,-5.174478889E-1,9.760024071E0,9.774708047E0
3.749279903E0,-1.190429255E-1,-5.174478889E-1,9.740881920E0,9.755342337E0
3.751725215E0,-1.381855011E-1,-5.509474277E-1,9.733703613E0,9.750262783E0
3.754171465E0,-1.286142170E-1,-5.533402562E-1,9.743274689E0,9.759822166E0
3.756617559E0,-1.405783296E-1,-5.461617708E-1,9.755238533E0,9.771526686E0
3.759063809E0,-1.286142170E-1,-5.485545993E-1,9.776774406E0,9.792996046E0
3.761510788E0,-1.357926875E-1,-5.533402562E-1,9.767203331E0,9.783807337E0
3.763956101E0,-1.501496136E-1,-5.533402562E-1,9.764810562E0,9.781628477E0
3.766402351E0,-1.310070455E-1,-5.509474277E-1,9.750452995E0,9.766884843E0
3.768849278E0,-1.477568001E-1,-5.629115105E-1,9.757631302E0,9.774971614E0
3.771294642E0,-1.262213886E-1,-5.724828243E-1,9.750452995E0,9.768060301E0
3.773740840E0,-1.070788130E-1,-5.676971674E-1,9.733703613E0,9.750832374E0
3.776187038E0,-1.238285750E-1,-5.676971674E-1,9.745667458E0,9.762973307E0
3.778633236E0,-9.511470050E-2,-5.868397355E-1,9.762416840E0,9.780501533E0
3.781080163E0,-1.046859920E-1,-5.605186820E-1,9.774381638E0,9.790999783E0
3.783525528E0,-1.118644550E-1,-5.724828243E-1,9.798309326E0,9.815656671E0
3.785971778E0,-1.094716340E-1,-5.868397355E-1,9.786345482E0,9.804535828E0
3.788418705E0,-1.166501045E-1,-5.653043389E-1,9.764810562E0,9.781855732E0
3.790864069E0,-1.142572835E-1,-5.772684813E-1,9.738489151E0,9.756252588E0
3.793310267E0,-1.286142170E-1,-5.868397355E-1,9.755238533E0,9.773719933E0
3.795756465E0,-1.190429255E-1,-5.772684813E-1,9.728918076E0,9.746756232E0
3.798202663E0,-1.357926875E-1,-5.868397355E-1,9.726525307E0,9.745158545E0
3.800649590E0,-1.310070455E-1,-5.820540786E-1,9.743274689E0,9.761524033E0
3.803094955E0,-1.190429255E-1,-5.964110494E-1,9.752845764E0,9.771789900E0
3.805541153E0,-1.238285750E-1,-6.083751321E-1,9.764810562E0,9.784527537E0
3.807988132E0,-1.214357466E-1,-5.988038778E-1,9.738489151E0,9.757637197E0
3.810433496E0,-1.190429255E-1,-6.059823632E-1,9.745667458E0,9.765214797E0
3.812879694E0,-1.118644550E-1,-6.107679605E-1,9.781559944E0,9.801248191E0
3.815325892E0,-9.750752151E-2,-6.011967063E-1,9.748060226E0,9.767068310E0
3.817771986E0,-1.190429255E-1,-5.916253924E-1,9.719346046E0,9.738063431E0
3.820219017E0,-1.046859920E-1,-5.796613097E-1,9.748060226E0,9.765840700E0
3.822664382E0,-1.118644550E-1,-5.964110494E-1,9.750452995E0,9.769316937E0
3.825110580E0,-1.094716340E-1,-5.940182209E-1,9.738489151E0,9.757203115E0
3.827557559E0,-1.118644550E-1,-6.059823632E-1,9.736096382E0,9.755577945E0
3.830002924E0,-1.046859920E-1,-5.772684813E-1,9.762416840E0,9.780029683E0
3.832449121E0,-9.750752151E-2,-5.676971674E-1,9.745667458E0,9.762674940E0
3.834895319E0,-1.070788130E-1,-5.437689424E-1,9.762416840E0,9.778135461E0
3.837341413E0,-1.166501045E-1,-5.557330847E-1,9.774381638E0,9.790862215E0
3.839788444E0,-1.142572835E-1,-5.461617708E-1,9.774381638E0,9.790295389E0
3.842233757E0,-1.046859920E-1,-5.365904570E-1,9.767203331E0,9.782491982E0
3.844680007E0,-8.793623000E-2,-5.365904570E-1,9.769596100E0,9.784716146E0
3.847126986E0,-1.142572835E-1,-5.270192027E-1,9.755238533E0,9.770132179E0
3.849572299E0,-1.142572835E-1,-5.389832854E-1,9.738489151E0,9.754062162E0
3.852018549E0,-1.022931710E-1,-5.294120312E-1,9.745667458E0,9.760572482E0
3.854464746E0,-1.070788130E-1,-5.509474277E-1,9.748060226E0,9.764204377E0
3.856910840E0,-1.333998591E-1,-5.318048596E-1,9.757631302E0,9.773023102E0
3.859357871E0,-9.990034252E-2,-5.198407173E-1,9.740881920E0,9.755254739E0
3.861803184E0,-1.022931710E-1,-5.270192027E-1,9.716953278E0,9.731772404E0
3.864249434E0,-9.990034252E-2,-5.246263742E-1,9.716953278E0,9.731618258E0
3.866696413E0,-1.286142170E-1,-5.198407173E-1,9.769596100E0,9.784262054E0
3.869141726E0,-1.262213886E-1,-5.509474277E-1,9.776774406E0,9.793099239E0
3.871587976E0,-1.525424421E-1,-5.341976285E-1,9.774381638E0,9.790156929E0
3.874034069E0,-1.573280841E-1,-5.318048596E-1,9.740881920E0,9.756656656E0
3.876480319E0,-1.357926875E-1,-5.318048596E-1,9.738489151E0,9.753944177E0
3.878927299E0,-1.549352705E-1,-5.461617708E-1,9.745667458E0,9.762188884E0
3.881372611E0,-1.477568001E-1,-5.413761139E-1,9.769596100E0,9.785700186E0
3.883818861E0,-1.286142170E-1,-5.437689424E-1,9.757631302E0,9.773617289E0
3.886265840E0,-1.453639716E-1,-5.365904570E-1,9.762416840E0,9.778233100E0
3.888711153E0,-1.357926875E-1,-5.318048596E-1,9.776774406E0,9.792169007E0
3.891157403E0,-1.262213886E-1,-5.318048596E-1,9.760024071E0,9.775316778E0
3.893603496E0,-1.142572835E-1,-5.222335458E-1,9.764810562E0,9.779432904E0
3.896049746E0,-1.405783296E-1,-5.126622319E-1,9.757631302E0,9.772100770E0
3.898496726E0,-7.597211748E-2,-5.102694035E-1,9.788738251E0,9.802323356E0
3.900942038E0,-9.750752151E-2,-5.102694035E-1,9.788738251E0,9.802513918E0
3.903388288E0,-1.118644550E-1,-5.461617708E-1,9.800702095E0,9.816545619E0
3.905835267E0,-8.793623000E-2,-5.294120312E-1,9.783952713E0,9.798660142E0
3.908280580E0,-9.511470050E-2,-5.222335458E-1,9.767203331E0,9.781617228E0
3.910726830E0,-9.032905847E-2,-5.222335458E-1,9.762416840E0,9.776792407E0
3.913172924E0,-1.094716340E-1,-5.461617708E-1,9.750452995E0,9.766350922E0
3.915619174E0,-1.094716340E-1,-5.389832854E-1,9.752845764E0,9.768341083E0
3.918066153E0,-1.022931710E-1,-5.485545993E-1,9.743274689E0,9.759240631E0
3.920511465E0,-1.166501045E-1,-5.533402562E-1,9.755238533E0,9.771615605E0
3.922957715E0,-1.190429255E-1,-5.700899959E-1,9.755238533E0,9.772607260E0
3.925404694E0,-1.070788130E-1,-5.629115105E-1,9.755238533E0,9.772052705E0
3.927850007E0,-8.075776696E-2,-5.772684813E-1,9.688240051E0,9.705758909E0
3.930296257E0,-1.118644550E-1,-5.940182209E-1,9.750452995E0,9.769171148E0
3.932742351E0,-1.238285750E-1,-6.035895348E-1,9.791131020E0,9.810499502E0
3.935188601E0,-1.238285750E-1,-5.820540786E-1,9.757631302E0,9.775760282E0
3.937635580E0,-1.262213886E-1,-5.964110494E-1,9.738489151E0,9.757551379E0
3.940080892E0,-1.381855011E-1,-6.059823632E-1,9.731310844E0,9.751139452E0
3.942527142E0,-1.238285750E-1,-6.035895348E-1,9.771988869E0,9.791395217E0
3.944974069E0,-1.597209126E-1,-6.299105883E-1,9.762416840E0,9.784021702E0
3.947419434E0,-1.645065546E-1,-5.988038778E-1,9.774381638E0,9.794088262E0
3.949865632E0,-1.310070455E-1,-6.059823632E-1,9.767203331E0,9.786860497E0
3.952311830E0,-1.477568001E-1,-6.155536175E-1,9.724132538E0,9.744716104E0
3.954758028E0,-1.645065546E-1,-5.988038778E-1,9.709774971E0,9.729612453E0
3.957204955E0,-1.764706671E-1,-6.059823632E-1,9.760024071E0,9.780410338E0
3.959650319E0,-1.286142170E-1,-5.820540786E-1,9.771988869E0,9.790152962E0
3.962096517E0,-1.310070455E-1,-5.796613097E-1,9.764810562E0,9.782877664E0
3.964543496E0,-1.357926875E-1,-5.676971674E-1,9.774381638E0,9.791795347E0
3.966988861E0,-1.046859920E-1,-5.605186820E-1,9.743274689E0,9.759945800E0
3.969435059E0,-1.118644550E-1,-5.700899959E-1,9.740881920E0,9.758191269E0
3.971881257E0,-9.990034252E-2,-5.533402562E-1,9.757631302E0,9.773818811E0
3.974327455E0,-8.554340899E-2,-5.653043389E-1,9.776774406E0,9.793477649E0
3.976774382E0,-7.836493850E-2,-5.581258535E-1,9.783952713E0,9.800172255E0
