"Time (s)","Acceleration x (m/s^2)","Acceleration y (m/s^2)","Acceleration z (m/s^2)","Absolute acceleration (m/s^2)"
2.379038300E-2,-1.429711580E-1,-5.413761139E-1,1.038245773E1,1.039754574E1
2.623678900E-2,-1.094716340E-1,-5.653043389E-1,1.041356373E1,1.042947087E1
2.868246600E-2,-8.793623000E-2,-5.796613097E-1,1.050688457E1,1.052322971E1
3.112902800E-2,-8.315058798E-2,-5.892325640E-1,1.054307556E1,1.055985565E1
3.357626800E-2,-8.315058798E-2,-5.629115105E-1,1.057418251E1,1.058948153E1
3.602272600E-2,-1.166501045E-1,-5.653043389E-1,1.061246777E1,1.062815357E1
3.846840300E-2,-1.812563092E-1,-5.533402562E-1,1.068425179E1,1.070010633E1
4.091486200E-2,-2.195414752E-1,-5.557330847E-1,1.073210907E1,1.074873029E1
4.336215300E-2,-2.506481707E-1,-5.485545993E-1,1.077996540E1,1.079682318E1
4.580861200E-2,-3.131606579E-1,-4.935196638E-1,1.080867863E1,1.082447065E1
4.825428900E-2,-3.011965454E-1,-4.716851711E-1,1.082064342E1,1.083510639E1
5.070074700E-2,-2.650051117E-1,-4.094717801E-1,1.081346416E1,1.082445851E1
5.314809100E-2,-2.267199457E-1,-3.352942765E-1,1.074168015E1,1.074930307E1
5.559449700E-2,-1.788634956E-1,-2.611167729E-1,1.060289669E1,1.060761954E1
5.804017400E-2,-1.764706671E-1,-1.917249113E-1,1.037049294E1,1.037376615E1
6.048663300E-2,-1.716850251E-1,-1.462612897E-1,1.015513897E1,1.015764321E1
6.293397600E-2,-1.956132501E-1,-1.103689447E-1,9.929914474E0,9.932454244E0
6.538038300E-2,-2.147558331E-1,-1.103689447E-1,9.681061745E0,9.684072381E0
6.782606000E-2,-2.554338276E-1,-1.271187067E-1,9.422636032E0,9.426954726E0
7.027262200E-2,-3.179463148E-1,-1.462612897E-1,9.233304024E0,9.239934276E0
7.271986200E-2,-4.304089844E-1,-1.965105534E-1,9.120841980E0,9.133106083E0
7.516626800E-2,-5.117649436E-1,-2.443670183E-1,9.039485931E0,9.057258112E0
7.761194500E-2,-6.074778438E-1,-3.305086195E-1,9.032307625E0,9.058744190E0
8.005850800E-2,-6.696912646E-1,-3.879363835E-1,9.025128365E0,9.058251654E0
8.250574700E-2,-7.031907439E-1,-4.286143482E-1,9.101698875E0,9.138879029E0
8.495220500E-2,-7.462615371E-1,-4.597210586E-1,9.144769669E0,9.186678509E0
8.739788300E-2,-7.462615371E-1,-4.788636267E-1,9.216554642E0,9.259108819E0
8.984434100E-2,-7.007979155E-1,-5.078766346E-1,9.290732384E0,9.330957326E0
9.229168500E-2,-6.840481758E-1,-4.887340367E-1,9.338588715E0,9.376354411E0
9.473809100E-2,-6.457630396E-1,-4.692923427E-1,9.367302895E0,9.401255699E0
9.718376800E-2,-6.074778438E-1,-4.429712892E-1,9.401101112E0,9.431116319E0
9.963022600E-2,-5.955137610E-1,-3.951148391E-1,9.425029755E0,9.452086450E0
1.020775700E-1,-6.002993584E-1,-3.329014480E-1,9.446564674E0,9.471471208E0
1.045239760E-1,-6.122635007E-1,-2.898306549E-1,9.484849930E0,9.509008707E0
1.069696530E-1,-6.266204119E-1,-2.276172489E-1,9.530313492E0,9.553603404E0
1.094161120E-1,-6.170491576E-1,-1.654038578E-1,9.594920158E0,9.616163525E0
1.118634550E-1,-6.314060688E-1,-1.271187067E-1,9.645169258E0,9.666650030E0
1.143098620E-1,-6.314060688E-1,-7.686942816E-2,9.719346046E0,9.740137068E0
1.167555390E-1,-6.170491576E-1,-6.969095767E-2,9.783952713E0,9.803638977E0
1.192021010E-1,-6.337988973E-1,-4.576273263E-2,9.901201248E0,9.921571520E0
1.216493410E-1,-6.577271223E-1,-4.336991161E-2,9.975677490E0,9.997431035E0
1.240957990E-1,-6.146563292E-1,-3.140579537E-2,1.004028416E1,1.005912992E1
1.265414760E-1,-6.074778438E-1,-4.815555736E-2,1.010967541E1,1.012802474E1
1.289879350E-1,-5.739783049E-1,-8.883354068E-2,1.013838959E1,1.015501285E1
1.314352260E-1,-5.644070506E-1,-9.122636169E-2,1.017906761E1,1.019511133E1
1.338816850E-1,-5.524429083E-1,-1.319043487E-1,1.019342422E1,1.020923549E1
1.363273620E-1,-5.811567903E-1,-1.630110443E-1,1.017667484E1,1.019455868E1
1.387738200E-1,-5.548357368E-1,-1.845464408E-1,1.014078236E1,1.015762605E1
1.412211640E-1,-5.548357368E-1,-2.156531364E-1,1.012642574E1,1.014390691E1
1.436675700E-1,-5.165506005E-1,-2.204387933E-1,1.008574772E1,1.010137242E1
1.461132470E-1,-4.639084935E-1,-2.443670183E-1,1.003789139E1,1.005157649E1
1.485597050E-1,-4.208376706E-1,-2.324029058E-1,9.968499184E0,9.980084741E0
1.510070490E-1,-3.299104273E-1,-2.228316069E-1,9.898808479E0,9.906810997E0
1.534534550E-1,-3.179463148E-1,-2.156531364E-1,9.822237968E0,9.829748463E0
1.558991330E-1,-2.697907388E-1,-2.108674943E-1,9.707382202E0,9.713419653E0
1.583456950E-1,-2.362912297E-1,-2.108674943E-1,9.590133667E0,9.595361504E0
1.607929350E-1,-2.458625287E-1,-1.845464408E-1,9.518349648E0,9.523312753E0
1.632393410E-1,-2.386840582E-1,-1.941177398E-1,9.417850494E0,9.422874281E0
1.656850700E-1,-2.554338276E-1,-1.606182158E-1,9.357730865E0,9.362594277E0
1.681315280E-1,-3.059822023E-1,-1.677966863E-1,9.300303459E0,9.306848299E0
1.705788200E-1,-3.562314808E-1,-1.821536273E-1,9.273982048E0,9.282608676E0
1.730252780E-1,-4.040879309E-1,-2.132603228E-1,9.278767586E0,9.290010491E0
1.754709550E-1,-3.969094455E-1,-2.515454888E-1,9.302696228E0,9.314556852E0
1.779174140E-1,-4.615156651E-1,-2.659024298E-1,9.348159790E0,9.363321647E0
1.803647580E-1,-4.878367186E-1,-2.850449979E-1,9.360123634E0,9.377161072E0
1.828111640E-1,-4.734797776E-1,-2.922234535E-1,9.369695663E0,9.386201280E0
1.852568410E-1,-4.830510616E-1,-2.946162820E-1,9.413064957E0,9.430054558E0
1.877032990E-1,-4.878367186E-1,-2.754737139E-1,9.413064957E0,9.429722282E0
1.901506430E-1,-4.591228366E-1,-2.754737139E-1,9.427422523E0,9.442614838E0
1.925970490E-1,-4.663013220E-1,-2.467598319E-1,9.446564674E0,9.461284875E0
1.950427260E-1,-4.256233275E-1,-2.682952285E-1,9.425029755E0,9.438449206E0
1.974891850E-1,-4.136592150E-1,-2.491526604E-1,9.405886650E0,9.418274506E0
1.999365280E-1,-4.088735580E-1,-2.419741899E-1,9.403493881E0,9.415488637E0
2.023829350E-1,-3.945166469E-1,-2.491526604E-1,9.384052277E0,9.395645670E0
2.048286120E-1,-3.777668774E-1,-2.395813614E-1,9.396315575E0,9.406957713E0
2.072751740E-1,-3.777668774E-1,-2.539383173E-1,9.415457726E0,9.426454088E0
2.097224140E-1,-3.825525343E-1,-2.682952285E-1,9.432208061E0,9.443774546E0
2.121688720E-1,-3.634099364E-1,-2.874378264E-1,9.482457161E0,9.493770647E0
2.146145490E-1,-3.538386524E-1,-2.730808854E-1,9.515956879E0,9.526447936E0
2.170610080E-1,-3.442673683E-1,-2.994019389E-1,9.566205978E0,9.577079845E0
2.195082990E-1,-3.323032558E-1,-3.376871049E-1,9.604491234E0,9.616169190E0
2.219547580E-1,-3.275175989E-1,-3.113660514E-1,9.635597229E0,9.646188395E0
2.244004350E-1,-2.988037169E-1,-3.113660514E-1,9.683454514E0,9.693065758E0
2.268468930E-1,-3.083750308E-1,-3.041875660E-1,9.721739769E0,9.731384761E0
2.292942370E-1,-2.769692242E-1,-2.946162820E-1,9.743274689E0,9.751662031E0
2.317406430E-1,-2.844468057E-1,-3.065803945E-1,9.795916557E0,9.804839760E0
2.341863200E-1,-2.769692242E-1,-3.041875660E-1,9.846165657E0,9.854756221E0
2.366327780E-1,-2.769692242E-1,-2.994019389E-1,9.877272606E0,9.885690042E0
2.390801220E-1,-2.697907388E-1,-3.017947674E-1,9.929914474E0,9.938162234E0
2.415265280E-1,-3.011965454E-1,-3.017947674E-1,9.980463028E0,9.989566642E0
2.439722050E-1,-3.299104273E-1,-2.970091105E-1,1.001635551E1,1.002618737E1
2.464187680E-1,-3.323032558E-1,-2.635096014E-1,1.004506969E1,1.005401850E1
2.488660080E-1,-3.179463148E-1,-2.587239444E-1,1.006421185E1,1.007255618E1
2.513124140E-1,-3.323032558E-1,-2.156531364E-1,1.008814049E1,1.009591552E1
2.537581430E-1,-3.442673683E-1,-2.036890239E-1,1.009531879E1,1.010324061E1
2.562046010E-1,-3.107678294E-1,-1.941177398E-1,1.009531879E1,1.010196614E1
2.586518930E-1,-3.107678294E-1,-1.941177398E-1,1.005942631E1,1.006609736E1
2.610983510E-1,-2.820539773E-1,-1.606182158E-1,1.002353382E1,1.002878771E1
2.635440280E-1,-2.578266263E-1,-1.534397453E-1,9.978070259E0,9.982580048E0
2.659904870E-1,-2.578266263E-1,-1.462612897E-1,9.927521706E0,9.931946141E0
2.684378300E-1,-2.267199457E-1,-1.319043487E-1,9.860523224E0,9.864011301E0
2.708842370E-1,-2.243271172E-1,-1.414756328E-1,9.822237968E0,9.825817865E0
2.733299140E-1,-2.147558331E-1,-1.319043487E-1,9.762416840E0,9.765669530E0
2.757763720E-1,-2.219343036E-1,-1.366899908E-1,9.707382202E0,9.710880918E0
2.782237160E-1,-2.291127741E-1,-9.601201117E-2,9.657133102E0,9.660327672E0
2.806701220E-1,-2.219343036E-1,-1.151545867E-1,9.585348129E0,9.588608563E0
2.831157990E-1,-2.243271172E-1,-8.404789865E-2,9.539884567E0,9.542891819E0
2.855623620E-1,-2.338984162E-1,-8.883354068E-2,9.477671623E0,9.480973540E0
2.880096010E-1,-2.554338276E-1,-9.601201117E-2,9.422636032E0,9.426586579E0
2.904560080E-1,-2.916252613E-1,-1.127617657E-1,9.376873970E0,9.382085374E0
2.929017370E-1,-3.011965454E-1,-1.151545867E-1,9.336195946E0,9.341762932E0
2.953481950E-1,-3.275175989E-1,-1.342971772E-1,9.309874535E0,9.316601707E0
2.977954870E-1,-3.394817114E-1,-1.558325738E-1,9.264410973E0,9.271938432E0
3.002419450E-1,-3.586242795E-1,-1.606182158E-1,9.264410973E0,9.272740709E0
3.026876220E-1,-3.514458239E-1,-1.989033818E-1,9.264410973E0,9.273208042E0
3.051340800E-1,-3.562314808E-1,-2.108674943E-1,9.216554642E0,9.225846597E0
3.075814240E-1,-3.442673683E-1,-2.419741899E-1,9.254839897E0,9.264401387E0
3.100278300E-1,-3.610171080E-1,-2.419741899E-1,9.273982048E0,9.284160053E0
3.124735080E-1,-3.586242795E-1,-2.347957194E-1,9.288339615E0,9.298225272E0
3.149199660E-1,-3.538386524E-1,-2.515454888E-1,9.333803177E0,9.343894192E0
3.173673100E-1,-3.323032558E-1,-2.467598319E-1,9.338588715E0,9.347756685E0
3.198137160E-1,-3.418745399E-1,-2.419741899E-1,9.369695663E0,9.379052539E0
3.222593930E-1,-3.466601670E-1,-2.395813614E-1,9.389137268E0,9.398588784E0
3.247059550E-1,-3.442673683E-1,-2.419741899E-1,9.415457726E0,9.424856270E0
3.271531950E-1,-3.155534863E-1,-2.347957194E-1,9.460921288E0,9.469093655E0
3.295996010E-1,-2.868396044E-1,-2.300100774E-1,9.511171341E0,9.518275152E0
3.320452780E-1,-2.506481707E-1,-2.395813614E-1,9.563813210E0,9.570096491E0
3.344918410E-1,-2.195414752E-1,-2.371885478E-1,9.609276772E0,9.614710445E0
3.369390800E-1,-1.668993831E-1,-2.467598319E-1,9.647562027E0,9.652160322E0
3.393855390E-1,-1.333998591E-1,-2.467598319E-1,9.697811127E0,9.701867170E0
3.418312160E-1,-8.793623000E-2,-2.587239444E-1,9.721739769E0,9.725579417E0
3.442776740E-1,-4.725824669E-2,-2.563311160E-1,9.769596100E0,9.773072543E0
3.467250180E-1,-3.529413417E-2,-3.041875660E-1,9.779167175E0,9.783960670E0
3.491714240E-1,-4.007977992E-2,-2.802593410E-1,9.795916557E0,9.800006780E0
3.516171010E-1,-2.572284266E-2,-2.946162820E-1,9.819845200E0,9.824297439E0
3.540635600E-1,-6.580262445E-3,-2.898306549E-1,9.817452431E0,9.821731891E0
3.565109030E-1,2.991028363E-3,-3.568296731E-1,9.862915993E0,9.869369192E0
3.589573100E-1,2.931207791E-2,-3.687937856E-1,9.908379555E0,9.915283831E0
3.614029870E-1,8.673982322E-2,-3.448655605E-1,9.932307243E0,9.938671100E0
3.638495490E-1,1.322034448E-1,-3.616153300E-1,9.956535339E0,9.963977086E0
3.662967890E-1,1.585244983E-1,-3.305086195E-1,9.992427826E0,9.999148955E0
3.687431950E-1,1.896311939E-1,-3.257229924E-1,1.000439167E1,1.001148881E1
3.711889240E-1,1.896311939E-1,-3.185445070E-1,1.003310490E1,1.003995142E1
3.736353830E-1,1.896311939E-1,-3.089732230E-1,1.007856941E1,1.008508730E1
3.760826740E-1,2.159522474E-1,-3.329014480E-1,1.016471100E1,1.017245341E1
3.785291330E-1,2.207378894E-1,-3.281157911E-1,1.022453117E1,1.023217586E1
3.809748100E-1,2.039881349E-1,-3.233301640E-1,1.026520920E1,1.027232561E1
3.834212680E-1,2.063809484E-1,-3.424727321E-1,1.029153061E1,1.029929526E1
3.858686120E-1,2.087737769E-1,-3.472583890E-1,1.029631615E1,1.030428557E1
3.883150180E-1,2.015953064E-1,-3.735794425E-1,1.031545830E1,1.032418918E1
3.907606950E-1,2.015953064E-1,-3.831507266E-1,1.032742214E1,1.033649328E1
3.932071530E-1,2.542374134E-1,-3.855435550E-1,1.026042366E1,1.027081176E1
3.956544970E-1,2.470589429E-1,-3.855435550E-1,1.016231823E1,1.017262964E1
3.981009030E-1,2.446661144E-1,-3.735794425E-1,1.004985523E1,1.005977203E1
4.005465800E-1,2.087737769E-1,-3.879363835E-1,9.764810562E0,9.774743293E0
4.029931430E-1,1.393819153E-1,-3.568296731E-1,9.630811691E0,9.638427702E0
4.054403830E-1,8.673982322E-2,-3.616153300E-1,9.685847282E0,9.692983391E0
4.078867890E-1,1.734796353E-2,-3.759722710E-1,9.767203331E0,9.774452261E0
4.103324660E-1,-5.204389244E-2,-4.022932947E-1,9.901201248E0,9.909507284E0
4.127790280E-1,-7.597211748E-2,-4.692923427E-1,9.990034103E0,1.000133933E1
4.152262680E-1,-1.166501045E-1,-4.863412082E-1,9.915557861E0,9.928163109E0
4.176727260E-1,-1.046859920E-1,-5.150550604E-1,9.716953278E0,9.731157273E0
4.201184030E-1,-1.357926875E-1,-4.839483798E-1,9.456135750E0,9.469485150E0
4.225648620E-1,-1.310070455E-1,-4.645066857E-1,9.257232666E0,9.269805065E0
4.250122050E-1,-8.315058798E-2,-4.310071766E-1,9.087342262E0,9.097937711E0
4.274586120E-1,-3.768695518E-2,-4.262215197E-1,9.010771751E0,9.020925266E0
4.299042890E-1,1.734796353E-2,-3.735794425E-1,8.919844627E0,8.927681151E0
4.323507470E-1,5.324030295E-2,-4.046861231E-1,8.876773834E0,8.886153222E0
4.347980910E-1,1.034895778E-1,-4.357928336E-1,8.850452423E0,8.861779369E0
4.372444970E-1,1.034895778E-1,-4.549354017E-1,8.819046974E0,8.831379612E0
4.396901740E-1,1.226321608E-1,-4.911268353E-1,8.840881348E0,8.855361496E0
4.421367370E-1,1.274178028E-1,-5.533402562E-1,8.836095810E0,8.854321538E0
4.445839760E-1,1.226321608E-1,-6.059823632E-1,8.840881348E0,8.862473485E0
4.470304350E-1,1.585244983E-1,-6.658028960E-1,8.855237961E0,8.881647530E0
4.494761120E-1,8.195417374E-2,-7.375875711E-1,8.780761719E0,8.812067196E0
4.519225700E-1,6.759724021E-2,-7.423732281E-1,8.720941544E0,8.752742930E0
4.543698620E-1,7.238288224E-2,-7.639086246E-1,8.653942108E0,8.687894433E0
4.568163200E-1,-2.572284266E-2,-7.232306600E-1,8.594121933E0,8.624538020E0
4.592619970E-1,-2.820539773E-1,-3.448655605E-1,8.661120415E0,8.672571334E0
4.617084550E-1,-3.323032558E-1,-2.922234535E-1,8.936594009E0,8.947543377E0
4.641557990E-1,-3.729812205E-1,-4.046861231E-1,9.113663673E0,9.130265681E0
4.666022050E-1,-4.902295470E-1,-5.772684813E-1,9.187840462E0,9.219000828E0
4.690478830E-1,-6.433702111E-1,-7.447660565E-1,9.204590797E0,9.257056414E0
4.714943410E-1,-7.558328509E-1,-8.739784956E-1,9.202198029E0,9.274457950E0
4.739416850E-1,-8.108677864E-1,-9.002995491E-1,9.214161873E0,9.293482924E0
4.763880910E-1,-8.422735929E-1,-9.002995491E-1,9.206983566E0,9.289160913E0
4.788337680E-1,-7.845467329E-1,-8.309076428E-1,9.257232666E0,9.327501151E0
4.812803300E-1,-7.079764009E-1,-7.495517135E-1,9.269196510E0,9.326363831E0
4.837275700E-1,-6.314060688E-1,-5.940182209E-1,9.242876053E0,9.283441657E0
4.861740280E-1,-5.428716540E-1,-3.137588799E-1,9.254839897E0,9.276056047E0
4.886197050E-1,-4.280161560E-1,3.565305769E-1,9.015557289E0,9.032750695E0
4.910661640E-1,-4.088735580E-1,2.751746178E-1,8.864809990E0,8.878499581E0
4.935135080E-1,-5.069792867E-1,4.037888348E-2,8.864809990E0,8.879387063E0
4.959599140E-1,-5.644070506E-1,-2.204387933E-1,8.998807907E0,9.019184682E0
4.984055910E-1,-6.170491576E-1,-4.453641176E-1,9.209376335E0,9.240763569E0
5.008520490E-1,-6.601199508E-1,-6.107679605E-1,9.403493881E0,9.446401062E0
5.032993930E-1,-6.529414654E-1,-6.921239495E-1,9.551849365E0,9.599124669E0
5.057457990E-1,-6.409773827E-1,-6.993024349E-1,9.707382202E0,9.753622154E0
5.081914760E-1,-6.936194897E-1,-5.892325640E-1,9.829416275E0,9.871460242E0
5.106379350E-1,-6.529414654E-1,-4.573282301E-1,9.915557861E0,9.947550923E0
5.130852780E-1,-5.859424472E-1,-3.233301640E-1,9.982855797E0,1.000526266E1
5.155316850E-1,-5.428716540E-1,-2.204387933E-1,9.961320877E0,9.978537794E0
5.179773620E-1,-5.021936297E-1,-1.725823283E-1,9.958928108E0,9.973075362E0
5.204239240E-1,-4.974080026E-1,-1.558325738E-1,9.951749802E0,9.965391243E0
5.228711640E-1,-4.686941206E-1,-1.582254022E-1,9.939486504E0,9.951788855E0
5.253176220E-1,-4.447658956E-1,-1.725823283E-1,9.970891953E0,9.982298718E0
5.277632990E-1,-4.280161560E-1,-1.869392693E-1,9.992427826E0,1.000333734E1
5.302097580E-1,-4.328017831E-1,-2.060818523E-1,1.001156998E1,1.002303948E1
5.326571010E-1,-4.686941206E-1,-1.893320978E-1,1.002114105E1,1.003388204E1
5.351035080E-1,-4.950151742E-1,-2.132603228E-1,1.001635551E1,1.003084731E1
5.375491850E-1,-5.715855360E-1,-2.180459648E-1,9.980463028E0,9.999194784E0
5.399956430E-1,-6.266204119E-1,-2.204387933E-1,9.927521706E0,9.949720278E0
5.424429870E-1,-6.529414654E-1,-2.491526604E-1,9.855737686E0,9.880484550E0
5.448893930E-1,-6.696912646E-1,-2.300100774E-1,9.733703613E0,9.759425037E0
5.473350700E-1,-6.864410043E-1,-2.180459648E-1,9.566205978E0,9.593281092E0
5.497816330E-1,-6.457630396E-1,-1.701895148E-1,9.458528519E0,9.482074463E0
5.522288720E-1,-6.194419861E-1,-1.319043487E-1,9.245268822E0,9.266935994E0
5.546752780E-1,-5.715855360E-1,-9.361918271E-2,9.123234749E0,9.141601985E0
5.571210080E-1,-5.285146832E-1,-4.336991161E-2,9.005986214E0,9.021585027E0
5.595674660E-1,-5.213362575E-1,-1.465603895E-2,8.943773270E0,8.958966826E0
5.620147580E-1,-5.452644825E-1,-5.054837838E-2,8.907880783E0,8.924696552E0
5.644612160E-1,-6.098706722E-1,-1.175474152E-1,8.910273552E0,8.931894223E0
5.669068930E-1,-7.199404836E-1,-2.012962103E-1,8.972486496E0,9.003574201E0
5.693533510E-1,-7.941179872E-1,-2.659024298E-1,9.046664238E0,9.085343214E0
5.718006950E-1,-8.252246976E-1,-2.874378264E-1,9.123234749E0,9.164989285E0
5.742471010E-1,-8.180462122E-1,-3.065803945E-1,9.175876617E0,9.217369627E0
5.766927780E-1,-7.725825906E-1,-2.563311160E-1,9.218947411E0,9.254813929E0
5.791392370E-1,-7.055835724E-1,-2.036890239E-1,9.276374817E0,9.305399891E0
5.815865800E-1,-6.337988973E-1,-1.390828192E-1,9.319445610E0,9.342007897E0
5.840329870E-1,-5.452644825E-1,-9.122636169E-2,9.417850494E0,9.434062939E0
5.864786640E-1,-4.663013220E-1,-5.533402413E-2,9.496813774E0,9.508415780E0
5.889252260E-1,-4.423730969E-1,-3.140579537E-2,9.587740898E0,9.597992280E0
5.913724660E-1,-4.304089844E-1,-2.183450572E-2,9.693025589E0,9.702601389E0
5.938188720E-1,-4.280161560E-1,-5.772684515E-2,9.776774406E0,9.786309213E0
5.962646010E-1,-4.519443810E-1,-4.576273263E-2,9.877272606E0,9.887712682E0
5.987110600E-1,-4.519443810E-1,-3.140579537E-2,9.970891953E0,9.981178607E0
6.011583510E-1,-4.758726060E-1,-1.226321608E-2,1.004985523E1,1.006112296E1
6.036048100E-1,-5.021936297E-1,-3.379862010E-2,1.014078236E1,1.015326586E1
6.060504870E-1,-5.428716540E-1,-4.815555736E-2,1.025563812E1,1.027010915E1
6.084969450E-1,-5.572285652E-1,-5.772684515E-2,1.038006496E1,1.039517122E1
6.109442890E-1,-5.596213937E-1,-4.576273263E-2,1.049731255E1,1.051231854E1
6.133906950E-1,-5.548357368E-1,-9.870393202E-3,1.059811020E1,1.061262832E1
6.158363720E-1,-5.404788256E-1,1.166501082E-2,1.070578766E1,1.071942829E1
6.182828300E-1,-5.620142221E-1,1.645065658E-2,1.081346416E1,1.082807175E1
6.207301740E-1,-5.763711333E-1,3.559323773E-2,1.088764191E1,1.090294533E1
6.231765800E-1,-6.122635007E-1,4.037888348E-2,1.094267750E1,1.095986715E1
6.256222580E-1,-6.457630396E-1,3.559323773E-2,1.100010490E1,1.101910090E1
6.280688200E-1,-6.505486369E-1,1.166501082E-2,1.102642632E1,1.104560668E1
6.305160600E-1,-7.127620578E-1,-4.336991161E-2,1.105035400E1,1.107340211E1
6.329625180E-1,-7.510471940E-1,-6.490531564E-2,1.110568810E1,1.113124398E1
6.354081950E-1,-7.510471940E-1,-7.926224917E-2,1.112243748E1,1.114804780E1
6.378546530E-1,-7.606185079E-1,-8.644071966E-2,1.112004471E1,1.114636294E1
6.403019970E-1,-7.893323898E-1,-1.127617657E-1,1.112243748E1,1.115098096E1
6.427484030E-1,-7.893323898E-1,-1.007976532E-1,1.113918781E1,1.116757408E1
6.451940800E-1,-7.941179872E-1,-1.247258782E-1,1.113679504E1,1.116576839E1
6.476405390E-1,-8.108677864E-1,-1.319043487E-1,1.110808086E1,1.113841846E1
6.500878830E-1,-8.470591903E-1,-1.151545867E-1,1.105513954E1,1.108814142E1
6.525342890E-1,-8.901300430E-1,-1.319043487E-1,1.098814106E1,1.102492513E1
6.549799660E-1,-9.260223508E-1,-1.654038578E-1,1.090678501E1,1.094727524E1
6.574264240E-1,-1.012163997E0,-1.821536273E-1,1.081346416E1,1.086225866E1
6.598737680E-1,-1.036092162E0,-1.869392693E-1,1.071775150E1,1.076933752E1
6.623201740E-1,-1.110269666E0,-2.324029058E-1,1.059811020E1,1.065864202E1
6.647658510E-1,-1.174875975E0,-2.754737139E-1,1.048056316E1,1.054980680E1
6.672124140E-1,-1.268195987E0,-3.400799036E-1,1.033699417E1,1.042004913E1
6.696596530E-1,-1.311266780E0,-3.664009571E-1,1.021256733E1,1.030292200E1
6.721061120E-1,-1.287338614E0,-3.759722710E-1,1.008096218E1,1.016977848E1
6.745517890E-1,-1.265803218E0,-3.400799036E-1,9.958928108E0,1.004480767E1
6.769982470E-1,-1.220339537E0,-3.185445070E-1,9.841380119E0,9.921867860E0
6.794455910E-1,-1.213161111E0,-2.994019389E-1,9.719346046E0,9.799341252E0
6.818919970E-1,-1.198804140E0,-2.970091105E-1,9.587740898E0,9.666960293E0
6.843376740E-1,-1.210768223E0,-2.874378264E-1,9.499206543E0,9.580370825E0
6.867841330E-1,-1.194018483E0,-2.970091105E-1,9.427422523E0,9.507375557E0
6.892314760E-1,-1.148554921E0,-3.041875660E-1,9.364909172E0,9.439980523E0
6.916778830E-1,-1.134197950E0,-3.520440459E-1,9.338588715E0,9.413797277E0
6.941235600E-1,-1.122233868E0,-3.257229924E-1,9.355338097E0,9.428035597E0
6.965701220E-1,-1.095912814E0,-3.041875660E-1,9.357730865E0,9.426594397E0
6.990173620E-1,-1.138983607E0,-3.568296731E-1,9.343374252E0,9.419302176E0
7.014638200E-1,-1.153340459E0,-3.664009571E-1,9.333803177E0,9.411924650E0
7.039094970E-1,-1.167697430E0,-4.238287210E-1,9.410672188E0,9.492307364E0
7.063559550E-1,-1.112662554E0,-4.142574072E-1,9.465706825E0,9.539875935E0
7.088032990E-1,-1.055234790E0,-3.975076675E-1,9.568598747E0,9.634812650E0
7.112497050E-1,-9.978070259E-1,-3.520440459E-1,9.702596664E0,9.760119666E0
7.136953830E-1,-9.355936646E-1,-3.161516786E-1,9.829416275E0,9.878902353E0
7.161418410E-1,-8.781659007E-1,-2.778665423E-1,9.982855797E0,1.002525785E1
7.185891850E-1,-8.446664214E-1,-2.395813614E-1,1.006181908E1,1.010005266E1
7.210355910E-1,-8.324031830E-1,-2.347957194E-1,1.014796066E1,1.018474986E1
7.234812680E-1,-8.470591903E-1,-2.395813614E-1,1.023410225E1,1.027189161E1
7.259277260E-1,-8.371888399E-1,-2.371885478E-1,1.027478027E1,1.031155920E1
7.283750700E-1,-8.371888399E-1,-2.659024298E-1,1.031306553E1,1.035040627E1
7.308214760E-1,-8.901300430E-1,-3.041875660E-1,1.033220863E1,1.037494081E1
7.332671530E-1,-8.829515576E-1,-3.472583890E-1,1.035852909E1,1.040189006E1
7.357137160E-1,-8.901300430E-1,-3.616153300E-1,1.036092186E1,1.040537356E1
7.381609550E-1,-8.877372146E-1,-3.975076675E-1,1.037288570E1,1.041838987E1
7.406074140E-1,-8.901300430E-1,-4.405784607E-1,1.036092186E1,1.040841691E1
7.430530910E-1,-8.997012973E-1,-4.668995142E-1,1.033699417E1,1.038657336E1
7.454995490E-1,-8.853443861E-1,-5.150550604E-1,1.030827999E1,1.035904208E1
7.479468930E-1,-8.781659007E-1,-5.222335458E-1,1.029153061E1,1.034212287E1
7.503932990E-1,-8.252246976E-1,-5.294120312E-1,1.026760197E1,1.031430672E1
7.528389760E-1,-7.941179872E-1,-5.940182209E-1,1.023649502E1,1.028442080E1
7.552854350E-1,-7.582256794E-1,-6.131607890E-1,1.020060253E1,1.024710517E1
7.577327780E-1,-7.199404836E-1,-5.892325640E-1,1.011206818E1,1.015477386E1
7.601791850E-1,-6.816553473E-1,-5.892325640E-1,1.006181908E1,1.010208158E1
7.626248620E-1,-6.409773827E-1,-5.246263742E-1,9.951749802E0,9.986160872E0
7.650714240E-1,-6.242275834E-1,-5.150550604E-1,9.910772324E0,9.943759341E0
7.675186640E-1,-5.979065299E-1,-4.597210586E-1,9.870094299E0,9.898868478E0
7.699651220E-1,-6.122635007E-1,-4.549354017E-1,9.843772888E0,9.873282002E0
7.724107990E-1,-6.170491576E-1,-4.286143482E-1,9.829416275E0,9.858087250E0
7.748572580E-1,-6.505486369E-1,-3.927220106E-1,9.800702095E0,9.830117276E0
7.773045490E-1,-6.888338327E-1,-4.286143482E-1,9.786345482E0,9.819916507E0
7.797510080E-1,-7.031907439E-1,-4.501497746E-1,9.750452995E0,9.786135379E0
7.821966850E-1,-7.247261405E-1,-4.501497746E-1,9.695418358E0,9.732882406E0
7.846431430E-1,-7.606185079E-1,-4.692923427E-1,9.626026154E0,9.667427544E0
7.870904870E-1,-7.893323898E-1,-5.054838061E-1,9.520742416E0,9.566770388E0
7.895368930E-1,-7.917252183E-1,-5.557330847E-1,9.389137268E0,9.438832911E0
7.919825700E-1,-7.965108156E-1,-6.035895348E-1,9.120841980E0,9.175429594E0
7.944290280E-1,-8.060821295E-1,-6.753742099E-1,8.955737114E0,9.017268210E0
7.968763720E-1,-7.893323898E-1,-7.351947427E-1,8.692227364E0,8.758902527E0
7.993227780E-1,-7.247261405E-1,-8.309076428E-1,8.637192726E0,8.707280498E0
8.017685080E-1,-6.218347549E-1,-9.002995491E-1,8.601300240E0,8.670616100E0
8.042149660E-1,-5.476573110E-1,-9.840483069E-1,8.594121933E0,8.667595480E0
8.066622580E-1,-4.495515525E-1,-1.029511929E0,8.630014420E0,8.702823696E0
8.091087160E-1,-3.275175989E-1,-1.092024446E0,8.725727081E0,8.799891946E0
8.115543930E-1,-2.338984162E-1,-1.130309582E0,8.799904823E0,8.875282143E0
8.140008510E-1,-1.214357466E-1,-1.151844978E0,8.850452423E0,8.925917409E0
8.164481950E-1,-3.290131316E-2,-1.168594718E0,8.903095245E0,8.979521204E0
8.188946010E-1,5.383851007E-3,-1.197308660E0,8.917451859E0,8.997473238E0
8.213402780E-1,5.383851007E-3,-1.199701428E0,8.941379547E0,9.021506565E0
8.237867370E-1,5.383851007E-3,-1.254736423E0,9.039485931E0,9.126154633E0
8.262340800E-1,5.982056609E-4,-1.261914849E0,9.120841980E0,9.207724359E0
8.286804870E-1,-2.333002165E-2,-1.316949725E0,9.192625999E0,9.286510304E0
8.311261640E-1,-5.922235921E-2,-1.350449324E0,9.288339615E0,9.386185246E0
8.335727260E-1,-1.070788130E-1,-1.419841170E0,9.427422523E0,9.534343725E0
8.360199660E-1,-2.123630047E-1,-1.477268934E0,9.547062874E0,9.663013560E0
8.384664240E-1,-2.940180898E-1,-1.532303810E0,9.642776489E0,9.768190212E0
8.409121010E-1,-4.399802685E-1,-1.537089467E0,9.695418358E0,9.826360659E0
8.433585600E-1,-6.050850153E-1,-1.558624864E0,9.757631302E0,9.899838785E0
8.458059030E-1,-7.366902828E-1,-1.592124343E0,9.874879837E0,1.002949771E1
8.482523100E-1,-8.590233326E-1,-1.637887120E0,1.004506969E1,1.021391308E1
8.506979870E-1,-9.643075466E-1,-1.601695657E0,1.011685371E1,1.028815081E1
8.531444450E-1,-1.122233868E0,-1.568196177E0,1.006660461E1,1.024964275E1
8.555917890E-1,-1.229910851E0,-1.513161182E0,1.012164021E1,1.030776105E1
8.580381950E-1,-1.330409408E0,-1.460519075E0,1.022931671E1,1.041835042E1
8.604838720E-1,-1.354337573E0,-1.348056436E0,1.027717304E1,1.045331393E1
8.629304350E-1,-1.294517040E0,-1.247557878E0,1.038963604E1,1.054403680E1
8.653776740E-1,-1.217946768E0,-1.173380375E0,1.068664455E1,1.081963898E1
8.678241330E-1,-1.131805062E0,-1.130309582E0,1.105274677E1,1.116789119E1
8.702698100E-1,-1.110269666E0,-1.051346421E0,1.118704414E1,1.129105773E1
8.727162680E-1,-1.098305583E0,-9.266205430E-1,1.124686432E1,1.133829166E1
8.751635600E-1,-1.093519926E0,-8.045865893E-1,1.131386375E1,1.139502780E1
8.776100180E-1,-1.086341500E0,-6.538388133E-1,1.135454178E1,1.142511541E1
8.800556950E-1,-1.095912814E0,-5.198407173E-1,1.135932732E1,1.142390373E1
8.825021530E-1,-1.155733347E0,-3.975076675E-1,1.132582760E1,1.139158034E1
8.849494970E-1,-1.170090318E0,-2.419741899E-1,1.147657585E1,1.153860720E1
8.873959030E-1,-1.138983607E0,-1.271187067E-1,1.159621716E1,1.165271192E1
8.898415800E-1,-1.179661512E0,-1.103689447E-1,1.134257793E1,1.140429116E1
8.922881430E-1,-1.380658627E0,-1.055833027E-1,1.069382381E1,1.078309945E1
8.947353830E-1,-1.529312730E0,-2.662015148E-2,9.987641335E0,1.010408261E1
8.971817890E-1,-1.546062589E0,1.603191197E-1,9.468100548E0,9.594839224E0
8.996275180E-1,-1.397408366E0,3.469592929E-1,9.276374817E0,9.387452297E0
9.020739760E-1,-1.004985452E0,5.144568682E-1,9.259625435E0,9.328200514E0
9.045212680E-1,-6.194419861E-1,6.822535396E-1,9.494421005E0,9.539036036E0
9.069677260E-1,-3.921238184E-1,7.899305820E-1,9.673882484E0,9.713997825E0
9.094134030E-1,-3.777668774E-1,8.473583460E-1,9.743274689E0,9.787345178E0
9.118598620E-1,-4.686941206E-1,8.545367718E-1,9.783952713E0,9.832377025E0
9.143072050E-1,-5.644070506E-1,8.114659786E-1,9.882058144E0,9.931369770E0
9.167536120E-1,-5.811567903E-1,6.559324861E-1,9.949057579E0,9.987579154E0
9.191992890E-1,-5.428716540E-1,4.881358147E-1,1.005464077E1,1.008111042E1
9.216457470E-1,-5.428716540E-1,2.512463629E-1,1.010010433E1,1.011780321E1
9.240930910E-1,-6.170491576E-1,2.093719784E-3,1.009531879E1,1.011415916E1
9.265394970E-1,-7.031907439E-1,-2.730808854E-1,9.973284721E0,1.000177277E1
9.289851740E-1,-7.606185079E-1,-5.318048596E-1,9.779167175E0,9.823108854E0
9.314317370E-1,-8.252246976E-1,-7.280163169E-1,9.525527954E0,9.588883478E0
9.338789760E-1,-7.917252183E-1,-8.356932998E-1,9.264410973E0,9.335658669E0
9.363254350E-1,-6.840481758E-1,-8.428717852E-1,9.051449776E0,9.116309439E0
9.387711120E-1,-4.878367186E-1,-7.998009920E-1,8.891130447E0,8.940350492E0
9.412175700E-1,-3.035893738E-1,-6.753742099E-1,8.843274117E0,8.874220751E0
9.436649140E-1,-1.621137410E-1,-5.533402562E-1,8.895915985E0,8.914582857E0
9.461113200E-1,-6.400800496E-2,-4.477569461E-1,8.991629601E0,9.002998733E0
9.485569970E-1,-3.290131316E-2,-3.975076675E-1,9.147162437E0,9.155854712E0
9.510034550E-1,-6.879365444E-2,-3.640081584E-1,9.338588715E0,9.345933537E0
9.534507990E-1,-1.357926875E-1,-3.783650696E-1,9.482457161E0,9.490974322E0
9.558972050E-1,-2.410768867E-1,-3.687937856E-1,9.604491234E0,9.614591972E0
9.583428830E-1,-2.964109182E-1,-3.879363835E-1,9.695418358E0,9.707702674E0
9.607894450E-1,-3.059822023E-1,-3.927220106E-1,9.750452995E0,9.763154680E0
9.632366850E-1,-2.745763958E-1,-3.664009571E-1,9.767203331E0,9.777929370E0
9.656831430E-1,-2.458625287E-1,-2.922234535E-1,9.748060226E0,9.755537971E0
9.681288200E-1,-2.051845491E-1,-2.204387933E-1,9.704989433E0,9.709660852E0
9.705752780E-1,-1.812563092E-1,-1.390828192E-1,9.669096947E0,9.671795782E0
9.730226220E-1,-1.262213886E-1,-9.122636169E-2,9.671489716E0,9.672743530E0
9.754690280E-1,-1.166501045E-1,-6.011966988E-2,9.630811691E0,9.631705740E0
9.779147050E-1,-1.525424421E-1,-4.336991161E-2,9.621240616E0,9.622547539E0
9.803611640E-1,-1.645065546E-1,-3.379862010E-2,9.626026154E0,9.627491068E0
9.828085080E-1,-2.075773627E-1,-4.097708687E-2,9.592526436E0,9.594859608E0
9.852549140E-1,-2.267199457E-1,-4.576273263E-2,9.566205978E0,9.569001671E0
9.877005910E-1,-2.964109182E-1,-3.619144112E-2,9.573384285E0,9.578040296E0
9.901471530E-1,-3.466601670E-1,-7.447660714E-2,9.539884567E0,9.546471473E0
9.925943930E-1,-3.849453330E-1,-1.247258782E-1,9.527920723E0,9.536509464E0
9.950407990E-1,-4.639084935E-1,-1.869392693E-1,9.551849365E0,9.564935111E0
9.974865280E-1,-5.309075117E-1,-2.395813614E-1,9.542277336E0,9.560037593E0
9.999329870E-1,-6.146563292E-1,-2.898306549E-1,9.604491234E0,9.628502276E0
1.002380330E0,-6.936194897E-1,-3.472583890E-1,9.628418922E0,9.659614243E0
1.004826737E0,-7.007979155E-1,-3.640081584E-1,9.688240051E0,9.720371132E0
1.007272414E0,-7.175477147E-1,-4.286143482E-1,9.693025589E0,9.728994298E0
1.009718872E0,-7.438687682E-1,-4.381856322E-1,9.728918076E0,9.767148730E0
1.012166216E0,-7.486543655E-1,-4.668995142E-1,9.707382202E0,9.747396972E0
1.014612622E0,-7.414759398E-1,-4.716851711E-1,9.704989433E0,9.744695653E0
1.017058299E0,-7.271189690E-1,-4.621138871E-1,9.664311409E0,9.702637077E0
1.019504862E0,-7.390831113E-1,-4.692923427E-1,9.671489716E0,9.711034572E0
1.021952101E0,-7.869395614E-1,-4.911268353E-1,9.671489716E0,9.715873237E0
1.024398508E0,-7.845467329E-1,-4.911268353E-1,9.688240051E0,9.732354003E0
1.026844185E0,-7.606185079E-1,-4.887340367E-1,9.724132538E0,9.766071630E0
1.029290747E0,-7.055835724E-1,-5.006981492E-1,9.748060226E0,9.786379565E0
1.031737987E0,-6.409773827E-1,-4.887340367E-1,9.803094864E0,9.836177198E0
1.034184445E0,-5.691927075E-1,-4.668995142E-1,9.841380119E0,9.868877249E0
1.036630122E0,-5.715855360E-1,-4.429712892E-1,9.850952148E0,9.877458773E0
1.039076580E0,-5.356931686E-1,-4.310071766E-1,9.829416275E0,9.853433851E0
1.041523924E0,-5.141577721E-1,-3.927220106E-1,9.829416275E0,9.850685920E0
1.043970330E0,-5.141577721E-1,-3.496512175E-1,9.798309326E0,9.818018122E0
1.046416008E0,-5.093721151E-1,-3.376871049E-1,9.779167175E0,9.798244903E0
1.048862570E0,-5.189434290E-1,-3.089732230E-1,9.760024071E0,9.778692990E0
1.051309810E0,-5.667998791E-1,-2.778665423E-1,9.700203896E0,9.720721554E0
1.053756216E0,-5.979065299E-1,-2.611167729E-1,9.681061745E0,9.703021730E0
1.056201945E0,-6.218347549E-1,-2.563311160E-1,9.683454514E0,9.706785020E0
1.058648403E0,-6.026921868E-1,-2.539383173E-1,9.690632820E0,9.712676613E0
1.061095695E0,-6.170491576E-1,-2.563311160E-1,9.695418358E0,9.718415120E0
1.063542153E0,-6.218347549E-1,-2.060818523E-1,9.700203896E0,9.722299307E0
1.065987830E0,-6.457630396E-1,-2.180459648E-1,9.707382202E0,9.731280654E0
1.068434289E0,-6.912266612E-1,-2.204387933E-1,9.709774971E0,9.736843305E0
1.070881633E0,-7.414759398E-1,-2.204387933E-1,9.702596664E0,9.733383886E0
1.073328039E0,-7.917252183E-1,-2.419741899E-1,9.712167740E0,9.747388498E0
1.075773716E0,-8.566305041E-1,-2.491526604E-1,9.693025589E0,9.733993936E0
1.078220174E0,-8.757730722E-1,-2.706880569E-1,9.649954796E0,9.693393527E0
1.080667518E0,-9.164510965E-1,-2.611167729E-1,9.640383720E0,9.687366147E0
1.083113924E0,-9.212366939E-1,-2.635096014E-1,9.657133102E0,9.704552237E0
1.085559601E0,-9.738788009E-1,-2.730808854E-1,9.666704178E0,9.719474407E0
1.088006164E0,-1.014556766E0,-3.041875660E-1,9.666704178E0,9.724557839E0
1.090453403E0,-1.040877819E0,-3.329014480E-1,9.649954796E0,9.711636194E0
1.092899862E0,-1.081555843E0,-4.022932947E-1,9.652347565E0,9.721081033E0
1.095345539E0,-1.119840980E0,-4.863412082E-1,9.661918640E0,9.738749581E0
1.097791997E0,-1.122233868E0,-5.198407173E-1,9.661918640E0,9.740755363E0
1.100239341E0,-1.095912814E0,-6.179464459E-1,9.652347565E0,9.733996929E0
1.102685747E0,-1.088734269E0,-6.394818425E-1,9.700203896E0,9.782036340E0
1.105131424E0,-1.055234790E0,-6.658028960E-1,9.714560509E0,9.794360614E0
1.107577883E0,-1.002592683E0,-6.705885530E-1,9.755238533E0,9.829524909E0
1.110025226E0,-9.786644578E-1,-6.801598072E-1,9.769596100E0,9.842022629E0
1.112471633E0,-9.571290612E-1,-6.777670383E-1,9.771988869E0,9.842115151E0
1.114917310E0,-9.403793216E-1,-6.705885530E-1,9.807881355E0,9.875653850E0
1.117363872E0,-9.523434043E-1,-6.658028960E-1,9.827023506E0,9.895485963E0
1.119811112E0,-9.834501147E-1,-6.442674994E-1,9.860523224E0,9.930366206E0
1.122257570E0,-1.021735311E0,-6.323033571E-1,9.841380119E0,9.914459805E0
1.124703247E0,-1.012163997E0,-5.676971674E-1,9.848558426E0,9.916695977E0
1.127149705E0,-9.499505758E-1,-4.983053207E-1,9.898808479E0,9.956762707E0
1.129597049E0,-9.068797827E-1,-3.975076675E-1,9.905986786E0,9.955351199E0
1.132043455E0,-8.901300430E-1,-3.113660514E-1,9.896415710E0,9.941243596E0
1.134489133E0,-8.371888399E-1,-2.276172489E-1,9.884450912E0,9.922452550E0
1.136935695E0,-8.084749579E-1,-1.869392693E-1,9.891630173E0,9.926375246E0
1.139382935E0,-7.749754190E-1,-1.319043487E-1,9.836594582E0,9.867957166E0
1.141829341E0,-7.917252183E-1,-1.223330572E-1,9.817452431E0,9.850084590E0
1.144275018E0,-8.060821295E-1,-1.295115203E-1,9.786345482E0,9.820341110E0
1.146721580E0,-7.989036441E-1,-1.558325738E-1,9.745667458E0,9.779599430E0
1.149168820E0,-7.965108156E-1,-1.749751568E-1,9.724132538E0,9.758268258E0
1.151615278E0,-8.036893010E-1,-2.108674943E-1,9.700203896E0,9.735724791E0
1.154060955E0,-8.036893010E-1,-2.443670183E-1,9.681061745E0,9.717437329E0
1.156507414E0,-7.654041648E-1,-2.491526604E-1,9.690632820E0,9.724005607E0
1.158954758E0,-7.941179872E-1,-2.826521695E-1,9.693025589E0,9.729607428E0
1.161401164E0,-8.060821295E-1,-3.089732230E-1,9.697811127E0,9.736158046E0
1.163846841E0,-8.228318691E-1,-3.161516786E-1,9.673882484E0,9.713959362E0
1.166293299E0,-8.470591903E-1,-3.520440459E-1,9.678668022E0,9.722039856E0
1.168740643E0,-8.395816684E-1,-3.616153300E-1,9.664311409E0,9.707449615E0
1.171187049E0,-8.470591903E-1,-3.281157911E-1,9.621240616E0,9.664028158E0
1.173632726E0,-8.662018180E-1,-3.209373355E-1,9.590133667E0,9.634519714E0
1.176079289E0,-8.300103545E-1,-2.802593410E-1,9.537491798E0,9.577641270E0
1.178526528E0,-8.180462122E-1,-2.778665423E-1,9.513564110E0,9.552712258E0
1.180972987E0,-7.965108156E-1,-3.113660514E-1,9.503992081E0,9.542391931E0
1.183418664E0,-7.917252183E-1,-3.544368446E-1,9.515956879E0,9.555411536E0
1.185865122E0,-7.893323898E-1,-4.286143482E-1,9.511171341E0,9.553488167E0
1.188312466E0,-7.797610760E-1,-4.525425732E-1,9.530313492E0,9.572862548E0
1.190758872E0,-8.060821295E-1,-4.812564552E-1,9.556634903E0,9.602637494E0
1.193204549E0,-8.228318691E-1,-4.668995142E-1,9.559027672E0,9.605730450E0
1.195651008E0,-8.446664214E-1,-4.692923427E-1,9.530313492E0,9.579173864E0
1.198098351E0,-9.332008362E-1,-4.887340367E-1,9.549455643E0,9.607384026E0
1.200544758E0,-9.284151793E-1,-4.959124923E-1,9.568598747E0,9.626316322E0
1.202990435E0,-9.355936646E-1,-5.102694035E-1,9.597312927E0,9.656299798E0
1.205436997E0,-9.164510965E-1,-5.365904570E-1,9.590133667E0,9.648755136E0
1.207884237E0,-9.044869542E-1,-5.294120312E-1,9.623633385E0,9.680531663E0
1.210330695E0,-8.949156404E-1,-5.341976285E-1,9.621240616E0,9.677526135E0
1.212776372E0,-8.566305041E-1,-5.533402562E-1,9.645169258E0,9.698932481E0
1.215222830E0,-8.084749579E-1,-5.174478889E-1,9.652347565E0,9.699958638E0
1.217670174E0,-7.773682475E-1,-4.812564552E-1,9.640383720E0,9.683641229E0
1.220116580E0,-7.797610760E-1,-4.381856322E-1,9.669096947E0,9.710379485E0
1.222562258E0,-7.606185079E-1,-4.118646085E-1,9.704989433E0,9.743458979E0
1.225008716E0,-7.462615371E-1,-3.903291821E-1,9.707382202E0,9.743845872E0
1.227456060E0,-7.486543655E-1,-3.783650696E-1,9.726525307E0,9.762629668E0
1.229902466E0,-7.438687682E-1,-3.903291821E-1,9.724132538E0,9.760350979E0
1.232348195E0,-7.582256794E-1,-3.999004960E-1,9.750452995E0,9.788062127E0
1.234794653E0,-7.917252183E-1,-3.831507266E-1,9.726525307E0,9.766213588E0
1.237241945E0,-7.869395614E-1,-3.735794425E-1,9.707382202E0,9.746389316E0
1.239688403E0,-7.342974544E-1,-3.424727321E-1,9.716953278E0,9.750674916E0
1.242134080E0,-7.007979155E-1,-3.185445070E-1,9.716953278E0,9.747398079E0
1.244580539E0,-7.031907439E-1,-3.041875660E-1,9.721739769E0,9.751883481E0
1.247027883E0,-6.912266612E-1,-3.161516786E-1,9.714560509E0,9.744251231E0
1.249474289E0,-6.888338327E-1,-2.850449979E-1,9.685847282E0,9.714493310E0
1.251919966E0,-6.984050870E-1,-2.922234535E-1,9.719346046E0,9.748787195E0
1.254366528E0,-7.079764009E-1,-2.754737139E-1,9.666704178E0,9.696508960E0
1.256813768E0,-7.199404836E-1,-2.994019389E-1,9.645169258E0,9.676634014E0
1.259260174E0,-7.510471940E-1,-2.850449979E-1,9.606884003E0,9.640411961E0
1.261705851E0,-7.510471940E-1,-2.563311160E-1,9.630811691E0,9.663452352E0
1.264152414E0,-7.677969933E-1,-2.276172489E-1,9.633204460E0,9.666434193E0
1.266599653E0,-7.630113363E-1,-2.204387933E-1,9.618847847E0,9.651580879E0
1.269046112E0,-7.749754190E-1,-2.036890239E-1,9.575777054E0,9.609244627E0
1.271491789E0,-7.582256794E-1,-1.941177398E-1,9.578169823E0,9.610094954E0
1.273938247E0,-7.486543655E-1,-1.630110443E-1,9.570991516E0,9.601611040E0
1.276385591E0,-7.606185079E-1,-1.342971772E-1,9.568598747E0,9.599721779E0
1.278831997E0,-7.725825906E-1,-1.462612897E-1,9.568598747E0,9.600851952E0
1.281277674E0,-7.725825906E-1,-1.342971772E-1,9.568598747E0,9.600677142E0
1.283724133E0,-7.845467329E-1,-1.534397453E-1,9.585348129E0,9.618625478E0
1.286171476E0,-8.204390407E-1,-1.558325738E-1,9.573384285E0,9.609739366E0
1.288617935E0,-7.989036441E-1,-2.012962103E-1,9.566205978E0,9.601617781E0
1.291063612E0,-7.749754190E-1,-2.084746659E-1,9.575777054E0,9.609347260E0
1.293510070E0,-7.749754190E-1,-2.347957194E-1,9.585348129E0,9.619491395E0
1.295957362E0,-7.677969933E-1,-2.539383173E-1,9.582955360E0,9.617017746E0
1.298403820E0,-7.390831113E-1,-3.017947674E-1,9.609276772E0,9.642381656E0
1.300849497E0,-7.151548862E-1,-2.874378264E-1,9.652347565E0,9.683071854E0
1.303295955E0,-7.223333120E-1,-2.826521695E-1,9.700203896E0,9.731167108E0
1.305743299E0,-7.342974544E-1,-2.730808854E-1,9.719346046E0,9.750869371E0
1.308189705E0,-7.319046259E-1,-2.754737139E-1,9.724132538E0,9.755527857E0
1.310635383E0,-7.271189690E-1,-2.874378264E-1,9.748060226E0,9.779366067E0
1.313081945E0,-7.462615371E-1,-3.257229924E-1,9.757631302E0,9.791545862E0
1.315529185E0,-7.606185079E-1,-3.711866140E-1,9.767203331E0,9.803804411E0
1.317975591E0,-7.917252183E-1,-4.357928336E-1,9.786345482E0,9.827985659E0
1.320421320E0,-8.422735929E-1,-4.959124923E-1,9.810274124E0,9.858845389E0
1.322867778E0,-8.614161611E-1,-5.174478889E-1,9.843772888E0,9.894930762E0
1.325315070E0,-9.116654396E-1,-5.341976285E-1,9.882058144E0,9.938388910E0
1.327761528E0,-9.164510965E-1,-5.676971674E-1,9.850952148E0,9.909763918E0
1.330207205E0,-9.212366939E-1,-5.485545993E-1,9.822237968E0,9.880584391E0
1.332653664E0,-8.685946465E-1,-5.700899959E-1,9.836594582E0,9.891311957E0
1.335101008E0,-8.324031830E-1,-5.940182209E-1,9.819845200E0,9.872948519E0
1.337547414E0,-8.180462122E-1,-6.203392744E-1,9.831809044E0,9.885266284E0
1.339993091E0,-8.446664214E-1,-6.490531564E-1,9.834201813E0,9.891726677E0
1.342439653E0,-8.347960114E-1,-6.658028960E-1,9.831809044E0,9.889623196E0
1.344886893E0,-8.371888399E-1,-6.275177598E-1,9.795916557E0,9.851631585E0
1.347333351E0,-8.084749579E-1,-5.844469070E-1,9.752845764E0,9.803734515E0
1.349779028E0,-7.654041648E-1,-5.796613097E-1,9.721739769E0,9.769036539E0
1.352225487E0,-7.606185079E-1,-5.844469070E-1,9.716953278E0,9.764184538E0
1.354672830E0,-7.414759398E-1,-5.844469070E-1,9.714560509E0,9.760330457E0
1.357119237E0,-7.486543655E-1,-5.509474277E-1,9.669096947E0,9.713673980E0
1.359564914E0,-7.438687682E-1,-5.389832854E-1,9.640383720E0,9.684050909E0
1.362011372E0,-7.103692293E-1,-4.740779996E-1,9.664311409E0,9.701973480E0
1.364458716E0,-7.366902828E-1,-3.687937856E-1,9.693025589E0,9.727973401E0
1.366905122E0,-7.295117974E-1,-3.017947674E-1,9.690632820E0,9.722737886E0
1.369350799E0,-7.462615371E-1,-2.204387933E-1,9.709774971E0,9.740904965E0
1.371797362E0,-7.486543655E-1,-1.414756328E-1,9.707382202E0,9.737236155E0
1.374244601E0,-7.390831113E-1,-6.251249462E-2,9.683454514E0,9.711819756E0
1.376691060E0,-7.175477147E-1,-7.477570791E-3,9.623633385E0,9.650349743E0
1.379136737E0,-7.247261405E-1,4.037888348E-2,9.604491234E0,9.631879894E0
1.381583195E0,-7.295117974E-1,6.909275055E-2,9.597312927E0,9.625246838E0
1.384030539E0,-7.271189690E-1,4.277170449E-2,9.623633385E0,9.651158010E0
1.386476945E0,-7.534400225E-1,5.473581702E-2,9.606884003E0,9.636539219E0
1.388922622E0,-7.630113363E-1,2.362912335E-2,9.621240616E0,9.651477380E0
1.391369080E0,-7.295117974E-1,3.320041299E-2,9.599705696E0,9.627441985E0
1.393816424E0,-7.558328509E-1,3.559323773E-2,9.604491234E0,9.634251504E0
1.396262830E0,-7.366902828E-1,-2.691925503E-3,9.592526436E0,9.620773526E0
1.398708508E0,-7.295117974E-1,-2.901297435E-2,9.592526436E0,9.620269884E0
1.401155070E0,-7.079764009E-1,-9.601201117E-2,9.570991516E0,9.597620929E0
1.403602310E0,-7.414759398E-1,-1.534397453E-1,9.585348129E0,9.615208218E0
1.406048768E0,-7.893323898E-1,-2.060818523E-1,9.570991516E0,9.605695912E0
1.408494445E0,-8.108677864E-1,-2.682952285E-1,9.544670105E0,9.582808373E0
1.410940903E0,-8.132606149E-1,-3.017947674E-1,9.542277336E0,9.581624584E0
1.413388247E0,-7.893323898E-1,-3.113660514E-1,9.518349648E0,9.556096193E0
1.415834653E0,-7.558328509E-1,-3.616153300E-1,9.501599312E0,9.538471493E0
1.418280330E0,-7.271189690E-1,-4.238287210E-1,9.506384850E0,9.543567765E0
1.420726789E0,-7.271189690E-1,-4.597210586E-1,9.527920723E0,9.566677519E0
1.423174133E0,-7.366902828E-1,-4.788636267E-1,9.547062874E0,9.587410102E0
1.425620539E0,-7.486543655E-1,-4.959124923E-1,9.554242134E0,9.596351146E0
1.428066268E0,-7.462615371E-1,-5.222335458E-1,9.554242134E0,9.597560988E0
1.430512726E0,-7.797610760E-1,-5.389832854E-1,9.520742416E0,9.567814091E0
1.432960018E0,-7.989036441E-1,-5.341976285E-1,9.518349648E0,9.566744177E0
1.435406476E0,-7.677969933E-1,-5.246263742E-1,9.513564110E0,9.558904076E0
1.437852153E0,-7.510471940E-1,-5.222335458E-1,9.530313492E0,9.574114842E0
1.440298612E0,-7.438687682E-1,-4.983053207E-1,9.539884567E0,9.581808101E0
1.442745955E0,-7.438687682E-1,-4.429712892E-1,9.587740898E0,9.626751261E0
1.445192362E0,-7.486543655E-1,-3.855435550E-1,9.602098465E0,9.638953373E0
1.447638039E0,-7.462615371E-1,-3.376871049E-1,9.611669540E0,9.646508706E0
1.450084601E0,-7.630113363E-1,-2.946162820E-1,9.630811691E0,9.665480789E0
1.452531841E0,-7.677969933E-1,-2.635096014E-1,9.637990952E0,9.672115545E0
1.454978247E0,-7.486543655E-1,-2.491526604E-1,9.652347565E0,9.684543041E0
1.457423976E0,-7.821539044E-1,-2.635096014E-1,9.676275253E0,9.711411062E0
1.459870435E0,-7.893323898E-1,-2.443670183E-1,9.697811127E0,9.732949271E0
1.462317726E0,-8.012964725E-1,-2.850449979E-1,9.731310844E0,9.768405061E0
1.464764185E0,-8.276175261E-1,-3.041875660E-1,9.726525307E0,9.766410568E0
1.467209862E0,-8.395816684E-1,-2.874378264E-1,9.762416840E0,9.802668026E0
1.469656320E0,-8.662018180E-1,-2.850449979E-1,9.791131020E0,9.833504100E0
1.472103664E0,-8.829515576E-1,-2.491526604E-1,9.841380119E0,9.884049937E0
1.474550070E0,-8.757730722E-1,-2.635096014E-1,9.838987350E0,9.881401108E0
1.476995747E0,-8.662018180E-1,-2.659024298E-1,9.870094299E0,9.911597811E0
1.479442310E0,-8.781659007E-1,-2.730808854E-1,9.884450912E0,9.927140493E0
1.481889549E0,-8.662018180E-1,-2.850449979E-1,9.898808479E0,9.940722587E0
1.484335955E0,-9.044869542E-1,-2.946162820E-1,9.925128937E0,9.970610805E0
1.486781685E0,-9.140582681E-1,-3.089732230E-1,9.941879272E0,9.988590013E0
1.489228143E0,-9.403793216E-1,-3.448655605E-1,9.932307243E0,9.982683642E0
1.491675487E0,-9.499505758E-1,-3.664009571E-1,9.932307243E0,9.984356911E0
1.494121893E0,-9.284151793E-1,-3.640081584E-1,9.910772324E0,9.960816469E0
1.496567570E0,-9.284151793E-1,-3.352942765E-1,9.927521706E0,9.976475541E0
1.499014028E0,-8.781659007E-1,-3.305086195E-1,9.922736168E0,9.967000770E0
1.501461372E0,-8.446664214E-1,-2.850449979E-1,9.917950630E0,9.957934360E0
1.503907778E0,-8.276175261E-1,-2.467598319E-1,9.908379555E0,9.945945233E0
1.506353455E0,-8.156534433E-1,-1.965105534E-1,9.898808479E0,9.934299988E0
1.508800018E0,-7.869395614E-1,-1.534397453E-1,9.874879837E0,9.907374497E0
1.511247258E0,-7.941179872E-1,-1.199402362E-1,9.836594582E0,9.869326319E0
1.513693716E0,-8.036893010E-1,-9.601201117E-2,9.827023506E0,9.860300492E0
1.516139393E0,-8.252246976E-1,-9.122636169E-2,9.815059662E0,9.850112396E0
1.518585851E0,-7.917252183E-1,-9.361918271E-2,9.771988869E0,9.804456121E0
1.521033195E0,-7.821539044E-1,-1.319043487E-1,9.767203331E0,9.799358367E0
1.523479601E0,-8.084749579E-1,-1.510469317E-1,9.755238533E0,9.789848097E0
1.525925278E0,-8.036893010E-1,-1.773679852E-1,9.714560509E0,9.749362121E0
1.528371737E0,-7.917252183E-1,-1.941177398E-1,9.731310844E0,9.765394066E0
1.530819080E0,-7.869395614E-1,-2.276172489E-1,9.712167740E0,9.746655103E0
1.533265539E0,-7.845467329E-1,-2.754737139E-1,9.704989433E0,9.740545120E0
1.535711216E0,-7.821539044E-1,-2.826521695E-1,9.731310844E0,9.766783899E0
1.538157674E0,-7.677969933E-1,-2.874378264E-1,9.740881920E0,9.775321647E0
1.540604966E0,-8.084749579E-1,-3.113660514E-1,9.769596100E0,9.807934978E0
1.543051424E0,-8.180462122E-1,-3.400799036E-1,9.791131020E0,9.831129161E0
1.545497101E0,-8.180462122E-1,-3.544368446E-1,9.800702095E0,9.841167951E0
1.547943560E0,-8.422735929E-1,-3.903291821E-1,9.827023506E0,9.870773661E0
1.550390903E0,-8.371888399E-1,-4.046861231E-1,9.819845200E0,9.863772897E0
1.552837310E0,-8.347960114E-1,-4.501497746E-1,9.805487633E0,9.851249003E0
1.555282987E0,-8.518448472E-1,-4.357928336E-1,9.805487633E0,9.852062868E0
1.557729549E0,-8.614161611E-1,-4.573282301E-1,9.812666893E0,9.861015083E0
1.560176789E0,-8.757730722E-1,-4.477569461E-1,9.807881355E0,9.857078748E0
1.562623247E0,-8.805587292E-1,-4.166502357E-1,9.798309326E0,9.846616005E0
1.565068924E0,-8.566305041E-1,-3.496512175E-1,9.788738251E0,9.832368399E0
1.567515383E0,-8.829515576E-1,-3.233301640E-1,9.798309326E0,9.843323194E0
1.569962726E0,-8.590233326E-1,-2.874378264E-1,9.779167175E0,9.821031119E0
1.572409133E0,-8.709874153E-1,-2.539383173E-1,9.791131020E0,9.833074310E0
1.574854810E0,-8.638089895E-1,-2.539383173E-1,9.783952713E0,9.825292939E0
1.577301268E0,-8.877372146E-1,-2.395813614E-1,9.800702095E0,9.843741065E0
1.579748612E0,-8.757730722E-1,-2.443670183E-1,9.807881355E0,9.849935553E0
1.582195018E0,-8.614161611E-1,-2.371885478E-1,9.798309326E0,9.838961422E0
1.584640695E0,-8.276175261E-1,-2.300100774E-1,9.762416840E0,9.800134589E0
1.587087258E0,-7.582256794E-1,-1.893320978E-1,9.757631302E0,9.788877436E0
1.589534497E0,-7.342974544E-1,-1.654038578E-1,9.724132538E0,9.753220227E0
1.591980955E0,-7.103692293E-1,-1.319043487E-1,9.721739769E0,9.748551038E0
1.594426633E0,-7.007979155E-1,-1.199402362E-1,9.709774971E0,9.735770815E0
1.596873091E0,-6.529414654E-1,-8.883354068E-2,9.678668022E0,9.701074097E0
1.599320435E0,-6.242275834E-1,-8.404789865E-2,9.659525871E0,9.680039472E0
1.601766841E0,-6.266204119E-1,-4.336991161E-2,9.623633385E0,9.644109789E0
1.604212518E0,-6.194419861E-1,-6.011966988E-2,9.626026154E0,9.646123691E0
1.606658976E0,-6.601199508E-1,-6.251249462E-2,9.616455078E0,9.639288067E0
1.609106320E0,-6.625127792E-1,-7.926224917E-2,9.597312927E0,9.620479256E0
1.611552726E0,-6.816553473E-1,-9.601201117E-2,9.609276772E0,9.633902241E0
1.613998455E0,-6.936194897E-1,-1.271187067E-1,9.566205978E0,9.592161591E0
1.616444914E0,-6.912266612E-1,-1.438684613E-1,9.551849365E0,9.577907847E0
1.618892205E0,-7.103692293E-1,-2.012962103E-1,9.542277336E0,9.570799411E0
1.621338664E0,-7.342974544E-1,-2.371885478E-1,9.539884567E0,9.571042196E0
1.623784341E0,-7.103692293E-1,-2.730808854E-1,9.556634903E0,9.586890439E0
1.626230799E0,-7.175477147E-1,-3.137588799E-1,9.561420441E0,9.593439435E0
1.628678143E0,-7.295117974E-1,-3.400799036E-1,9.573384285E0,9.607160271E0
1.631124549E0,-7.510471940E-1,-3.879363835E-1,9.563813210E0,9.601098356E0
1.633570226E0,-7.438687682E-1,-4.549354017E-1,9.563813210E0,9.603480102E0
1.636016789E0,-7.295117974E-1,-4.887340367E-1,9.573384285E0,9.613570361E0
1.638464028E0,-7.414759398E-1,-5.030909777E-1,9.554242134E0,9.596167457E0
1.640910487E0,-7.223333120E-1,-5.341976285E-1,9.566205978E0,9.608300023E0
1.643356164E0,-7.175477147E-1,-5.509474277E-1,9.587740898E0,9.630326750E0
1.645802622E0,-7.223333120E-1,-5.389832854E-1,9.609276772E0,9.651449035E0
1.648249966E0,-7.079764009E-1,-5.222335458E-1,9.633204460E0,9.673292440E0
1.650696372E0,-7.295117974E-1,-4.692923427E-1,9.683454514E0,9.722227835E0
1.653142049E0,-7.127620578E-1,-4.190430641E-1,9.666704178E0,9.701999614E0
1.655588508E0,-7.127620578E-1,-3.783650696E-1,9.700203896E0,9.733711804E0
1.658035851E0,-7.055835724E-1,-3.496512175E-1,9.745667458E0,9.777430048E0
1.660482258E0,-6.840481758E-1,-3.065803945E-1,9.728918076E0,9.757753859E0
1.662927935E0,-6.744768620E-1,-2.994019389E-1,9.697811127E0,9.725847069E0
1.665374497E0,-6.816553473E-1,-2.946162820E-1,9.707382202E0,9.735744552E0
1.667821737E0,-7.223333120E-1,-2.563311160E-1,9.693025589E0,9.723282168E0
1.670268195E0,-7.342974544E-1,-2.682952285E-1,9.642776489E0,9.674415409E0
1.672713872E0,-7.534400225E-1,-2.778665423E-1,9.626026154E0,9.659464850E0
1.675160330E0,-7.486543655E-1,-2.611167729E-1,9.621240616E0,9.653856034E0
1.677607674E0,-7.797610760E-1,-2.563311160E-1,9.635597229E0,9.670494658E0
1.680054080E0,-7.414759398E-1,-2.395813614E-1,9.618847847E0,9.650358527E0
1.682499758E0,-7.319046259E-1,-2.132603228E-1,9.580562592E0,9.610845120E0
1.684946216E0,-7.151548862E-1,-2.180459648E-1,9.544670105E0,9.573908187E0
1.687393560E0,-7.079764009E-1,-1.941177398E-1,9.492028236E0,9.520373539E0
1.689840018E0,-7.414759398E-1,-2.060818523E-1,9.482457161E0,9.513634958E0
1.692285695E0,-7.534400225E-1,-2.012962103E-1,9.460921288E0,9.493009198E0
1.694732153E0,-7.893323898E-1,-2.036890239E-1,9.456135750E0,9.491208467E0
1.697179497E0,-7.845467329E-1,-2.276172489E-1,9.427422523E0,9.462748999E0
1.699625903E0,-8.228318691E-1,-2.156531364E-1,9.441779137E0,9.480018556E0
1.702071580E0,-8.395816684E-1,-2.180459648E-1,9.436993599E0,9.476776330E0
1.704518039E0,-8.228318691E-1,-2.347957194E-1,9.434600830E0,9.473324345E0
1.706965383E0,-8.446664214E-1,-2.036890239E-1,9.427422523E0,9.467377991E0
1.709411789E0,-8.566305041E-1,-1.893320978E-1,9.429815292E0,9.470537414E0
1.711857466E0,-8.395816684E-1,-1.845464408E-1,9.460921288E0,9.499894019E0
1.714304028E0,-8.156534433E-1,-1.677966863E-1,9.451350212E0,9.487964329E0
1.716751268E0,-8.252246976E-1,-1.582254022E-1,9.470493317E0,9.507695554E0
1.719197726E0,-8.156534433E-1,-1.606182158E-1,9.453742981E0,9.490223659E0
1.721643403E0,-8.300103545E-1,-1.797607988E-1,9.436993599E0,9.475129515E0
1.724089862E0,-8.446664214E-1,-2.060818523E-1,9.403493881E0,9.443602505E0
1.726537205E0,-8.347960114E-1,-2.108674943E-1,9.398708344E0,9.438064844E0
1.728983612E0,-8.276175261E-1,-2.108674943E-1,9.379266739E0,9.418070951E0
1.731429289E0,-8.395816684E-1,-2.180459648E-1,9.386445045E0,9.426441111E0
1.733875851E0,-8.371888399E-1,-2.300100774E-1,9.364909172E0,9.405068505E0
1.736323091E0,-8.252246976E-1,-2.228316069E-1,9.340981483E0,9.380009851E0
1.738769549E0,-8.446664214E-1,-2.156531364E-1,9.338588715E0,9.379190094E0
1.741215226E0,-8.228318691E-1,-2.611167729E-1,9.355338097E0,9.395083031E0
1.743661685E0,-7.965108156E-1,-2.611167729E-1,9.343374252E0,9.380898351E0
1.746108976E0,-7.941179872E-1,-2.730808854E-1,9.381659508E0,9.419168311E0
1.748555435E0,-7.869395614E-1,-2.850449979E-1,9.410672188E0,9.447818560E0
1.751001112E0,-7.773682475E-1,-2.850449979E-1,9.439386368E0,9.475630166E0
1.753447570E0,-7.701897621E-1,-3.137588799E-1,9.434600830E0,9.471184178E0
1.755894914E0,-7.319046259E-1,-2.994019389E-1,9.494421005E0,9.527295321E0
1.758341320E0,-7.055835724E-1,-3.041875660E-1,9.513564110E0,9.544541913E0
1.760786997E0,-6.792625189E-1,-3.065803945E-1,9.532706261E0,9.561792602E0
1.763233560E0,-6.744768620E-1,-3.065803945E-1,9.580562592E0,9.609166985E0
1.765680799E0,-6.984050870E-1,-3.209373355E-1,9.633204460E0,9.663819049E0
1.768127258E0,-6.912266612E-1,-3.472583890E-1,9.628418922E0,9.659442718E0
1.770572935E0,-7.055835724E-1,-3.137588799E-1,9.702596664E0,9.733276676E0
1.773019393E0,-7.031907439E-1,-3.233301640E-1,9.726525307E0,9.757269811E0
1.775466737E0,-7.151548862E-1,-3.185445070E-1,9.748060226E0,9.779447596E0
1.777913143E0,-7.103692293E-1,-3.089732230E-1,9.757631302E0,9.788332724E0
1.780358820E0,-7.031907439E-1,-2.826521695E-1,9.771988869E0,9.801333375E0
1.782805278E0,-7.103692293E-1,-2.563311160E-1,9.776774406E0,9.805898627E0
1.785252622E0,-7.223333120E-1,-2.204387933E-1,9.795916557E0,9.824985490E0
1.787699028E0,-7.223333120E-1,-2.156531364E-1,9.805487633E0,9.834422169E0
1.790144705E0,-6.960122585E-1,-1.917249113E-1,9.829416275E0,9.855892441E0
1.792591268E0,-7.151548862E-1,-1.654038578E-1,9.841380119E0,9.868716614E0
1.795038508E0,-7.055835724E-1,-1.342971772E-1,9.850952148E0,9.877101910E0
1.797484966E0,-7.271189690E-1,-1.079761237E-1,9.841380119E0,9.868795443E0
1.799930643E0,-7.462615371E-1,-1.199402362E-1,9.848558426E0,9.877519679E0
1.802377101E0,-7.606185079E-1,-1.223330572E-1,9.815059662E0,9.845247689E0
1.804824445E0,-7.941179872E-1,-1.127617657E-1,9.819845200E0,9.852547809E0
1.807270851E0,-7.725825906E-1,-1.103689447E-1,9.815059662E0,9.846037849E0
1.809716528E0,-8.132606149E-1,-1.055833027E-1,9.791131020E0,9.825415376E0
1.812163091E0,-8.276175261E-1,-1.366899908E-1,9.779167175E0,9.815077461E0
1.814610330E0,-8.276175261E-1,-1.677966863E-1,9.781559944E0,9.817943850E0
1.817056789E0,-8.347960114E-1,-1.630110443E-1,9.764810562E0,9.801784649E0
1.819502466E0,-8.614161611E-1,-2.012962103E-1,9.748060226E0,9.788117089E0
1.821948924E0,-8.877372146E-1,-2.060818523E-1,9.731310844E0,9.773891643E0
1.824396268E0,-8.805587292E-1,-2.156531364E-1,9.738489151E0,9.780596142E0
1.826842674E0,-9.116654396E-1,-2.587239444E-1,9.719346046E0,9.765436986E0
1.829288351E0,-9.379864931E-1,-2.874378264E-1,9.719346046E0,9.768732095E0
1.831734810E0,-9.595218897E-1,-3.161516786E-1,9.716953278E0,9.769330332E0
1.834182153E0,-9.690931439E-1,-3.257229924E-1,9.731310844E0,9.784868305E0
1.836628560E0,-9.906286001E-1,-3.472583890E-1,9.728918076E0,9.785386059E0
1.839074237E0,-1.000199914E0,-3.687937856E-1,9.736096382E0,9.794283102E0
1.841520799E0,-9.882357717E-1,-3.903291821E-1,9.748060226E0,9.805796499E0
1.843968039E0,-9.595218897E-1,-3.903291821E-1,9.752845764E0,9.807703076E0
1.846414497E0,-9.355936646E-1,-4.166502357E-1,9.728918076E0,9.782677540E0
1.848860174E0,-9.355936646E-1,-4.357928336E-1,9.752845764E0,9.807306021E0
1.851306633E0,-9.475577474E-1,-4.405784607E-1,9.752845764E0,9.808668389E0
1.853753976E0,-9.068797827E-1,-4.405784607E-1,9.738489151E0,9.790541929E0
1.856200383E0,-8.877372146E-1,-4.022932947E-1,9.755238533E0,9.803805184E0
1.858646060E0,-8.901300430E-1,-3.807578981E-1,9.771988869E0,9.819830677E0
1.861092622E0,-8.566305041E-1,-3.568296731E-1,9.774381638E0,9.818333852E0
1.863539862E0,-8.276175261E-1,-3.329014480E-1,9.803094864E0,9.843599090E0
1.865986320E0,-8.276175261E-1,-3.233301640E-1,9.838987350E0,9.879026533E0
1.868431997E0,-8.300103545E-1,-3.065803945E-1,9.831809044E0,9.871543841E0
1.870878455E0,-8.324031830E-1,-3.113660514E-1,9.874879837E0,9.914791761E0
1.873325799E0,-8.204390407E-1,-3.185445070E-1,9.853344917E0,9.892572814E0
1.875772205E0,-8.132606149E-1,-2.874378264E-1,9.853344917E0,9.891027216E0
1.878217883E0,-8.108677864E-1,-2.922234535E-1,9.850952148E0,9.888587328E0
1.880664341E0,-8.060821295E-1,-3.185445070E-1,9.836594582E0,9.874706677E0
1.883111685E0,-8.156534433E-1,-3.065803945E-1,9.817452431E0,9.856046586E0
1.885558091E0,-8.422735929E-1,-3.233301640E-1,9.817452431E0,9.858820387E0
1.888003820E0,-8.276175261E-1,-3.305086195E-1,9.817452431E0,9.857817149E0
1.890450278E0,-8.590233326E-1,-3.400799036E-1,9.800702095E0,9.844152426E0
1.892897570E0,-8.542376757E-1,-3.233301640E-1,9.793523788E0,9.836024227E0
1.895344028E0,-8.829515576E-1,-3.089732230E-1,9.807881355E0,9.852390806E0
1.897789705E0,-8.901300430E-1,-3.209373355E-1,9.810274124E0,9.855800863E0
1.900236164E0,-8.973084688E-1,-3.065803945E-1,9.815059662E0,9.860758094E0
1.902683508E0,-9.068797827E-1,-3.329014480E-1,9.793523788E0,9.841054949E0
1.905129914E0,-9.116654396E-1,-3.735794425E-1,9.776774406E0,9.826291939E0
1.907575591E0,-9.140582681E-1,-3.807578981E-1,9.800702095E0,9.850595954E0
1.910022153E0,-9.140582681E-1,-3.975076675E-1,9.819845200E0,9.870302660E0
1.912469393E0,-8.949156404E-1,-4.070789516E-1,9.829416275E0,9.878462005E0
1.914915851E0,-9.020941257E-1,-3.999004960E-1,9.829416275E0,9.878821717E0
1.917361528E0,-9.092726111E-1,-3.687937856E-1,9.831809044E0,9.880650516E0
1.919807987E0,-8.901300430E-1,-3.305086195E-1,9.822237968E0,9.868025443E0
1.922255330E0,-8.901300430E-1,-2.802593410E-1,9.800702095E0,9.845031150E0
1.924701737E0,-8.829515576E-1,-2.491526604E-1,9.817452431E0,9.860225795E0
1.927147414E0,-8.614161611E-1,-2.395813614E-1,9.807881355E0,9.848551859E0
1.929593872E0,-8.180462122E-1,-2.228316069E-1,9.841380119E0,9.877834590E0
1.932041216E0,-8.204390407E-1,-2.108674943E-1,9.848558426E0,9.884922275E0
1.934487622E0,-8.132606149E-1,-2.036890239E-1,9.865308762E0,9.900868599E0
1.936933299E0,-7.582256794E-1,-1.701895148E-1,9.848558426E0,9.879168676E0
1.939379862E0,-7.821539044E-1,-1.438684613E-1,9.853344917E0,9.885386635E0
1.941827101E0,-7.606185079E-1,-1.390828192E-1,9.819845200E0,9.850240824E0
1.944273560E0,-7.342974544E-1,-7.208377868E-2,9.803094864E0,9.830821824E0
1.946719237E0,-7.295117974E-1,-4.576273263E-2,9.829416275E0,9.856556498E0
1.949165695E0,-7.390831113E-1,-4.815555736E-2,9.836594582E0,9.864438948E0
1.951613039E0,-7.295117974E-1,-4.576273263E-2,9.822237968E0,9.849397971E0
1.954059445E0,-7.606185079E-1,-8.644071966E-2,9.795916557E0,9.825782092E0
1.956505122E0,-7.701897621E-1,-1.103689447E-1,9.771988869E0,9.802914874E0
1.958951685E0,-7.941179872E-1,-1.414756328E-1,9.745667458E0,9.778991406E0
1.961398924E0,-8.132606149E-1,-1.654038578E-1,9.757631302E0,9.792860659E0
1.963845383E0,-8.371888399E-1,-1.965105534E-1,9.783952713E0,9.821671560E0
1.966291060E0,-8.757730722E-1,-1.917249113E-1,9.791131020E0,9.832089481E0
1.968737518E0,-8.853443861E-1,-1.893320978E-1,9.757631302E0,9.799543354E0
1.971184862E0,-8.829515576E-1,-2.012962103E-1,9.771988869E0,9.813862138E0
1.973631268E0,-9.092726111E-1,-2.395813614E-1,9.755238533E0,9.800451762E0
1.976076945E0,-9.092726111E-1,-2.611167729E-1,9.767203331E0,9.812910861E0
1.978523508E0,-8.973084688E-1,-2.730808854E-1,9.769596100E0,9.814516983E0
1.980970747E0,-9.236295223E-1,-3.041875660E-1,9.786345482E0,9.834540125E0
1.983417153E0,-9.092726111E-1,-3.352942765E-1,9.807881355E0,9.855644860E0
1.985862883E0,-9.092726111E-1,-3.281157911E-1,9.812666893E0,9.860165729E0
1.988309341E0,-8.853443861E-1,-3.376871049E-1,9.800702095E0,9.846401821E0
1.990756633E0,-9.092726111E-1,-3.544368446E-1,9.800702095E0,9.849170712E0
1.993203091E0,-8.973084688E-1,-3.305086195E-1,9.803094864E0,9.849622701E0
1.995648768E0,-8.662018180E-1,-3.233301640E-1,9.812666893E0,9.856129034E0
1.998095226E0,-8.925228715E-1,-3.233301640E-1,9.824630737E0,9.870385433E0
2.000542570E0,-8.590233326E-1,-2.826521695E-1,9.815059662E0,9.856632767E0
2.002988976E0,-8.276175261E-1,-2.611167729E-1,9.843772888E0,9.881953117E0
2.005434653E0,-8.566305041E-1,-2.395813614E-1,9.846165657E0,9.886262853E0
2.007881216E0,-8.446664214E-1,-2.443670183E-1,9.850952148E0,9.890118039E0
2.010328455E0,-8.204390407E-1,-2.395813614E-1,9.850952148E0,9.887961250E0
2.012774914E0,-8.276175261E-1,-2.204387933E-1,9.822237968E0,9.859508240E0
2.015220591E0,-8.276175261E-1,-2.180459648E-1,9.822237968E0,9.859455032E0
2.017667049E0,-8.012964725E-1,-1.797607988E-1,9.824630737E0,9.858892387E0
2.020114393E0,-8.395816684E-1,-1.797607988E-1,9.831809044E0,9.869228967E0
2.022560799E0,-8.324031830E-1,-1.845464408E-1,9.853344917E0,9.890164736E0
2.025006476E0,-8.156534433E-1,-1.797607988E-1,9.838987350E0,9.874374743E0
2.027453039E0,-8.204390407E-1,-1.725823283E-1,9.831809044E0,9.867490763E0
2.029900278E0,-8.132606149E-1,-1.797607988E-1,9.838987350E0,9.874177376E0
2.032346737E0,-8.395816684E-1,-1.893320978E-1,9.838987350E0,9.876558920E0
2.034792414E0,-8.614161611E-1,-2.252244353E-1,9.805487633E0,9.845829146E0
2.037238872E0,-8.877372146E-1,-2.467598319E-1,9.812666893E0,9.855830728E0
2.039686216E0,-8.901300430E-1,-2.659024298E-1,9.827023506E0,9.870837178E0
2.042132622E0,-9.379864931E-1,-2.826521695E-1,9.800702095E0,9.849541739E0
2.044578299E0,-9.403793216E-1,-3.017947674E-1,9.805487633E0,9.855099242E0
2.047024758E0,-9.284151793E-1,-2.994019389E-1,9.774381638E0,9.822939105E0
2.049472101E0,-9.427721500E-1,-3.089732230E-1,9.776774406E0,9.826983340E0
2.051918508E0,-9.332008362E-1,-2.898306549E-1,9.764810562E0,9.813581962E0
2.054364185E0,-9.690931439E-1,-2.706880569E-1,9.776774406E0,9.828414488E0
2.056810747E0,-9.451649189E-1,-2.802593410E-1,9.798309326E0,9.847778819E0
2.059257987E0,-9.260223508E-1,-2.778665423E-1,9.803094864E0,9.850654604E0
2.061704445E0,-9.308080077E-1,-2.802593410E-1,9.812666893E0,9.860698778E0
2.064150122E0,-9.092726111E-1,-2.778665423E-1,9.769596100E0,9.815752363E0
2.066596580E0,-8.901300430E-1,-2.946162820E-1,9.793523788E0,9.838304653E0
2.069043924E0,-8.614161611E-1,-3.017947674E-1,9.769596100E0,9.812141756E0
2.071490330E0,-8.518448472E-1,-2.706880569E-1,9.764810562E0,9.805632921E0
2.073936008E0,-8.733802438E-1,-2.946162820E-1,9.779167175E0,9.822509987E0
2.076382570E0,-8.252246976E-1,-2.802593410E-1,9.774381638E0,9.813158385E0
2.078829810E0,-8.108677864E-1,-2.850449979E-1,9.769596100E0,9.807332215E0
2.081276268E0,-7.989036441E-1,-2.994019389E-1,9.781559944E0,9.818696629E0
2.083721945E0,-7.893323898E-1,-3.137588799E-1,9.762416840E0,9.799299608E0
2.086168403E0,-7.797610760E-1,-3.065803945E-1,9.757631302E0,9.793538048E0
2.088615747E0,-7.582256794E-1,-3.041875660E-1,9.755238533E0,9.789387881E0
2.091062153E0,-7.606185079E-1,-2.946162820E-1,9.733703613E0,9.767820908E0
2.093507830E0,-7.630113363E-1,-2.898306549E-1,9.748060226E0,9.782170837E0
2.095954289E0,-7.462615371E-1,-2.515454888E-1,9.719346046E0,9.751198336E0
2.098401633E0,-7.606185079E-1,-2.659024298E-1,9.709774971E0,9.743150138E0
2.100848039E0,-7.486543655E-1,-2.682952285E-1,9.704989433E0,9.737519478E0
2.103293768E0,-7.390831113E-1,-2.682952285E-1,9.726525307E0,9.758253979E0
2.105740226E0,-7.414759398E-1,-2.778665423E-1,9.740881920E0,9.773012686E0
2.108187570E0,-7.725825906E-1,-2.754737139E-1,9.743274689E0,9.777738557E0
2.110633976E0,-7.773682475E-1,-2.611167729E-1,9.721739769E0,9.756265038E0
2.113079653E0,-7.965108156E-1,-2.563311160E-1,9.736096382E0,9.771985872E0
2.115526112E0,-7.725825906E-1,-2.467598319E-1,9.709774971E0,9.743587854E0
2.117973455E0,-7.869395614E-1,-2.730808854E-1,9.700203896E0,9.735902765E0
2.120419862E0,-8.180462122E-1,-2.922234535E-1,9.704989433E0,9.743788486E0
2.122865539E0,-8.395816684E-1,-3.209373355E-1,9.712167740E0,9.753671122E0
2.125312101E0,-8.590233326E-1,-3.616153300E-1,9.716953278E0,9.761550478E0
2.127759341E0,-8.542376757E-1,-4.094717801E-1,9.707382202E0,9.753494674E0
2.130205799E0,-8.542376757E-1,-4.405784607E-1,9.733703613E0,9.781043780E0
2.132651476E0,-8.662018180E-1,-4.477569461E-1,9.736096382E0,9.784802739E0
2.135097935E0,-8.733802438E-1,-4.334000051E-1,9.712167740E0,9.760985136E0
2.137545278E0,-8.949156404E-1,-4.046861231E-1,9.704989433E0,9.754561229E0
2.139991685E0,-8.877372146E-1,-3.903291821E-1,9.697811127E0,9.746177450E0
2.142437362E0,-8.662018180E-1,-3.616153300E-1,9.709774971E0,9.755039786E0
2.144883924E0,-8.446664214E-1,-3.424727321E-1,9.752845764E0,9.795343253E0
2.147331164E0,-8.590233326E-1,-3.209373355E-1,9.760024071E0,9.803009320E0
2.149777622E0,-8.300103545E-1,-2.946162820E-1,9.774381638E0,9.813982491E0
2.152223299E0,-8.494520187E-1,-3.017947674E-1,9.764810562E0,9.806333368E0
2.154669758E0,-8.566305041E-1,-2.970091105E-1,9.769596100E0,9.811576743E0
2.157117101E0,-8.395816684E-1,-2.850449979E-1,9.748060226E0,9.788300476E0
2.159563508E0,-8.395816684E-1,-2.994019389E-1,9.738489151E0,9.779197812E0
2.162009185E0,-8.347960114E-1,-2.706880569E-1,9.733703613E0,9.773184867E0
2.164455747E0,-8.204390407E-1,-2.850449979E-1,9.726525307E0,9.765227361E0
2.166902987E0,-7.941179872E-1,-2.659024298E-1,9.733703613E0,9.769662917E0
2.169349393E0,-7.701897621E-1,-2.491526604E-1,9.740881920E0,9.774459059E0
2.171795122E0,-7.486543655E-1,-2.347957194E-1,9.731310844E0,9.762890102E0
2.174241580E0,-7.247261405E-1,-2.156531364E-1,9.762416840E0,9.791655468E0
2.176688924E0,-7.127620578E-1,-2.204387933E-1,9.755238533E0,9.783726378E0
2.179135330E0,-7.055835724E-1,-2.395813614E-1,9.755238533E0,9.783656077E0
2.181581008E0,-6.888338327E-1,-2.563311160E-1,9.752845764E0,9.780500917E0
2.184027466E0,-7.127620578E-1,-2.587239444E-1,9.767203331E0,9.796592711E0
2.186474810E0,-7.151548862E-1,-2.682952285E-1,9.781559944E0,9.811337512E0
2.188921216E0,-7.079764009E-1,-2.826521695E-1,9.783952713E0,9.813605531E0
2.191366893E0,-7.366902828E-1,-2.970091105E-1,9.803094864E0,9.835222209E0
2.193813455E0,-7.462615371E-1,-3.089732230E-1,9.786345482E0,9.819619576E0
2.196260695E0,-7.366902828E-1,-3.329014480E-1,9.815059662E0,9.848295899E0
2.198707153E0,-7.295117974E-1,-3.257229924E-1,9.779167175E0,9.811747733E0
2.201152830E0,-7.462615371E-1,-3.855435550E-1,9.803094864E0,9.839015145E0
2.203599289E0,-7.558328509E-1,-3.735794425E-1,9.779167175E0,9.815444745E0
2.206046633E0,-7.845467329E-1,-3.903291821E-1,9.755238533E0,9.794516286E0
2.208493039E0,-8.084749579E-1,-3.975076675E-1,9.709774971E0,9.751480610E0
2.210938716E0,-8.300103545E-1,-4.142574072E-1,9.719346046E0,9.763514427E0
2.213385278E0,-8.276175261E-1,-4.022932947E-1,9.683454514E0,9.727079828E0
2.215832518E0,-8.252246976E-1,-4.118646085E-1,9.712167740E0,9.755861339E0
2.218278976E0,-8.395816684E-1,-3.927220106E-1,9.695418358E0,9.739623457E0
2.220724653E0,-8.108677864E-1,-3.831507266E-1,9.673882484E0,9.715364809E0
2.223171112E0,-8.300103545E-1,-3.879363835E-1,9.671489716E0,9.714788991E0
2.225618455E0,-8.422735929E-1,-3.879363835E-1,9.657133102E0,9.701553443E0
2.228064862E0,-8.542376757E-1,-3.687937856E-1,9.661918640E0,9.706616438E0
2.230510539E0,-8.228318691E-1,-3.568296731E-1,9.654740334E0,9.696308092E0
2.232956997E0,-8.252246976E-1,-3.472583890E-1,9.628418922E0,9.669955281E0
2.235404341E0,-8.060821295E-1,-3.376871049E-1,9.626026154E0,9.665618474E0
2.237850799E0,-7.965108156E-1,-3.137588799E-1,9.628418922E0,9.666401867E0
2.240296476E0,-8.156534433E-1,-2.659024298E-1,9.614062309E0,9.652263399E0
2.242742935E0,-8.084749579E-1,-2.682952285E-1,9.599705696E0,9.637425151E0
2.245190278E0,-8.204390407E-1,-2.395813614E-1,9.582955360E0,9.620995421E0
2.247636685E0,-8.276175261E-1,-2.132603228E-1,9.559027672E0,9.597157952E0
2.250082362E0,-8.470591903E-1,-2.180459648E-1,9.549455643E0,9.589429409E0
2.252528820E0,-8.685946465E-1,-1.893320978E-1,9.542277336E0,9.583598492E0
2.254976164E0,-8.566305041E-1,-2.108674943E-1,9.515956879E0,9.556762853E0
2.257422570E0,-8.371888399E-1,-2.036890239E-1,9.506384850E0,9.545351082E0
2.259868247E0,-8.638089895E-1,-2.084746659E-1,9.503992081E0,9.545443579E0
2.262314810E0,-8.542376757E-1,-2.443670183E-1,9.496813774E0,9.538286487E0
2.264762049E0,-8.733802438E-1,-2.659024298E-1,9.492028236E0,9.535832276E0
2.267208508E0,-9.020941257E-1,-2.539383173E-1,9.494421005E0,9.540560188E0
2.269654185E0,-8.973084688E-1,-2.802593410E-1,9.480064392E0,9.526559120E0
2.272100643E0,-8.877372146E-1,-2.994019389E-1,9.470493317E0,9.516720157E0
2.274547987E0,-9.092726111E-1,-3.041875660E-1,9.525527954E0,9.573661241E0
2.276994393E0,-8.925228715E-1,-2.898306549E-1,9.518349648E0,9.564495747E0
2.279440070E0,-9.164510965E-1,-3.161516786E-1,9.530313492E0,9.579494232E0
2.281886633E0,-8.829515576E-1,-3.041875660E-1,9.537491798E0,9.583104055E0
2.284333872E0,-8.566305041E-1,-2.922234535E-1,9.559027672E0,9.601782147E0
2.286780330E0,-8.276175261E-1,-2.826521695E-1,9.575777054E0,9.615630463E0
2.289226008E0,-8.132606149E-1,-3.065803945E-1,9.559027672E0,9.598457918E0
2.291672466E0,-8.012964725E-1,-3.137588799E-1,9.570991516E0,9.609599329E0
2.294119810E0,-8.108677864E-1,-3.400799036E-1,9.563813210E0,9.604149312E0
2.296566216E0,-8.060821295E-1,-3.161516786E-1,9.544670105E0,9.583863923E0
2.299011893E0,-7.965108156E-1,-2.874378264E-1,9.551849365E0,9.589310522E0
2.301458455E0,-8.036893010E-1,-2.946162820E-1,9.547062874E0,9.585359918E0
2.303905695E0,-8.060821295E-1,-2.970091105E-1,9.537491798E0,9.576102162E0
2.306352101E0,-8.084749579E-1,-2.730808854E-1,9.542277336E0,9.580358119E0
2.308797830E0,-8.324031830E-1,-2.563311160E-1,9.551849365E0,9.591476789E0
2.311244289E0,-8.252246976E-1,-2.467598319E-1,9.539884567E0,9.578689042E0
2.313691633E0,-8.180462122E-1,-2.659024298E-1,9.554242134E0,9.592885200E0
2.316138039E0,-8.252246976E-1,-2.730808854E-1,9.568598747E0,9.607999321E0
2.318583716E0,-8.446664214E-1,-2.659024298E-1,9.532706261E0,9.573748175E0
2.321030174E0,-8.156534433E-1,-2.850449979E-1,9.532706261E0,9.571783002E0
2.323477518E0,-8.156534433E-1,-2.946162820E-1,9.530313492E0,9.569689888E0
2.325923924E0,-8.108677864E-1,-3.065803945E-1,9.511171341E0,9.550595708E0
2.328369601E0,-8.156534433E-1,-3.257229924E-1,9.475278854E0,9.515896982E0
2.330816164E0,-8.012964725E-1,-3.376871049E-1,9.465706825E0,9.505562283E0
2.333263403E0,-7.917252183E-1,-3.544368446E-1,9.425029755E0,9.464863452E0
2.335709862E0,-7.965108156E-1,-3.735794425E-1,9.405886650E0,9.446941026E0
2.338155539E0,-8.132606149E-1,-3.448655605E-1,9.389137268E0,9.430600390E0
2.340601997E0,-8.324031830E-1,-3.568296731E-1,9.386445045E0,9.430035687E0
2.343049341E0,-8.542376757E-1,-3.616153300E-1,9.372088432E0,9.417883480E0
2.345495747E0,-8.276175261E-1,-3.735794425E-1,9.396315575E0,9.440087857E0
2.347941424E0,-8.542376757E-1,-3.759722710E-1,9.391530037E0,9.437791775E0
2.350387987E0,-8.614161611E-1,-4.022932947E-1,9.420243263E0,9.468097002E0
2.352835226E0,-8.470591903E-1,-4.166502357E-1,9.448957443E0,9.495994074E0
2.355281685E0,-8.470591903E-1,-4.357928336E-1,9.475278854E0,9.523042268E0
2.357727362E0,-8.371888399E-1,-4.740779996E-1,9.515956879E0,9.564469166E0
2.360173820E0,-8.324031830E-1,-4.764707983E-1,9.515956879E0,9.564170366E0
2.362621164E0,-8.494520187E-1,-4.405784607E-1,9.506384850E0,9.554424683E0
2.365067570E0,-8.590233326E-1,-4.310071766E-1,9.508777618E0,9.557224496E0
2.367513247E0,-8.805587292E-1,-3.975076675E-1,9.554242134E0,9.602965103E0
2.369959810E0,-8.566305041E-1,-3.879363835E-1,9.604491234E0,9.650417728E0
2.372407049E0,-8.638089895E-1,-3.664009571E-1,9.659525871E0,9.704991277E0
2.374853508E0,-8.446664214E-1,-3.472583890E-1,9.709774971E0,9.752629376E0
2.377299185E0,-8.853443861E-1,-3.711866140E-1,9.738489151E0,9.785692879E0
2.379745643E0,-8.733802438E-1,-3.496512175E-1,9.760024071E0,9.805259756E0
2.382192987E0,-8.973084688E-1,-3.640081584E-1,9.779167175E0,9.826992168E0
2.384639393E0,-8.757730722E-1,-3.472583890E-1,9.762416840E0,9.807769849E0
2.387085070E0,-8.494520187E-1,-3.424727321E-1,9.791131020E0,9.833875276E0
2.389531528E0,-8.446664214E-1,-3.376871049E-1,9.793523788E0,9.835680055E0
2.391978872E0,-8.276175261E-1,-3.281157911E-1,9.800702095E0,9.841055446E0
2.394425278E0,-8.084749579E-1,-3.687937856E-1,9.803094864E0,9.843287536E0
2.396871008E0,-7.893323898E-1,-3.640081584E-1,9.795916557E0,9.834405359E0
2.399317466E0,-7.989036441E-1,-3.927220106E-1,9.764810562E0,9.805304836E0
2.401764810E0,-7.773682475E-1,-3.831507266E-1,9.786345482E0,9.824645732E0
2.404211216E0,-7.654041648E-1,-3.592225015E-1,9.757631302E0,9.794194860E0
2.406656893E0,-7.630113363E-1,-3.281157911E-1,9.755238533E0,9.790532422E0
2.409103351E0,-7.989036441E-1,-3.137588799E-1,9.726525307E0,9.764322107E0
2.411550695E0,-7.821539044E-1,-3.017947674E-1,9.714560509E0,9.750668218E0
2.413997101E0,-7.893323898E-1,-2.706880569E-1,9.724132538E0,9.759870453E0
2.416442778E0,-7.917252183E-1,-2.276172489E-1,9.709774971E0,9.744658456E0
2.418889341E0,-7.534400225E-1,-2.036890239E-1,9.709774971E0,9.741092910E0
2.421336580E0,-7.630113363E-1,-2.060818523E-1,9.693025589E0,9.725194142E0
2.423783039E0,-7.677969933E-1,-2.180459648E-1,9.676275253E0,9.709137915E0
2.426228716E0,-7.630113363E-1,-1.965105534E-1,9.678668022E0,9.710685732E0
2.428675174E0,-7.510471940E-1,-2.036890239E-1,9.673882484E0,9.705130779E0
2.431122518E0,-7.414759398E-1,-2.036890239E-1,9.676275253E0,9.706780031E0
2.433568924E0,-7.175477147E-1,-2.276172489E-1,9.685847282E0,9.715056454E0
2.436014601E0,-6.792625189E-1,-2.419741899E-1,9.669096947E0,9.695946826E0
2.438461164E0,-6.792625189E-1,-2.682952285E-1,9.673882484E0,9.701411352E0
2.440908403E0,-7.079764009E-1,-2.826521695E-1,9.695418358E0,9.725341123E0
2.443354862E0,-7.055835724E-1,-3.041875660E-1,9.726525307E0,9.756826984E0
2.445800539E0,-7.247261405E-1,-3.305086195E-1,9.752845764E0,9.785318821E0
2.448246997E0,-7.031907439E-1,-3.352942765E-1,9.786345482E0,9.817303976E0
2.450694341E0,-7.366902828E-1,-3.807578981E-1,9.805487633E0,9.840491698E0
2.453140747E0,-7.319046259E-1,-4.046861231E-1,9.827023506E0,9.862547654E0
2.455586424E0,-7.390831113E-1,-4.094717801E-1,9.882058144E0,9.918113941E0
2.458032987E0,-7.510471940E-1,-4.118646085E-1,9.913165092E0,9.950102838E0
2.460480226E0,-7.462615371E-1,-4.214358926E-1,9.920343399E0,9.957295197E0
2.462926685E0,-7.438687682E-1,-4.142574072E-1,9.920343399E0,9.956814907E0
2.465372362E0,-7.821539044E-1,-4.357928336E-1,9.891630173E0,9.932070660E0
2.467818820E0,-7.965108156E-1,-4.190430641E-1,9.910772324E0,9.951554382E0
2.470266164E0,-8.204390407E-1,-3.951148391E-1,9.910772324E0,9.952519480E0
2.472712570E0,-8.108677864E-1,-3.927220106E-1,9.901201248E0,9.942108594E0
2.475158247E0,-7.989036441E-1,-3.568296731E-1,9.879665375E0,9.918334657E0
2.477604810E0,-8.204390407E-1,-3.065803945E-1,9.886843681E0,9.925562439E0
2.480052049E0,-8.108677864E-1,-2.922234535E-1,9.872487068E0,9.910040465E0
2.482498455E0,-8.395816684E-1,-2.802593410E-1,9.867701530E0,9.907319323E0
2.484944185E0,-8.518448472E-1,-2.371885478E-1,9.831809044E0,9.871492649E0
2.487390643E0,-8.542376757E-1,-2.204387933E-1,9.805487633E0,9.845095377E0
2.489837987E0,-8.446664214E-1,-1.941177398E-1,9.767203331E0,9.805580246E0
2.492284393E0,-8.252246976E-1,-1.821536273E-1,9.743274689E0,9.779855695E0
2.494730070E0,-8.324031830E-1,-1.917249113E-1,9.724132538E0,9.761578106E0
2.497176633E0,-8.300103545E-1,-2.060818523E-1,9.716953278E0,9.754515258E0
2.499623872E0,-8.156534433E-1,-2.228316069E-1,9.688240051E0,9.725067596E0
2.502070278E0,-8.036893010E-1,-2.467598319E-1,9.688240051E0,9.724649207E0
2.504516008E0,-8.276175261E-1,-2.802593410E-1,9.673882484E0,9.713264044E0
2.506962466E0,-8.371888399E-1,-2.946162820E-1,9.700203896E0,9.740720688E0
2.509409758E0,-8.347960114E-1,-3.329014480E-1,9.695418358E0,9.736983357E0
2.511856216E0,-8.470591903E-1,-3.687937856E-1,9.685847282E0,9.729807588E0
2.514301893E0,-8.566305041E-1,-4.118646085E-1,9.731310844E0,9.777620315E0
2.516748351E0,-8.180462122E-1,-4.214358926E-1,9.752845764E0,9.796162938E0
2.519195695E0,-8.276175261E-1,-4.381856322E-1,9.743274689E0,9.788174451E0
2.521642101E0,-7.749754190E-1,-4.716851711E-1,9.769596100E0,9.811629923E0
2.524087778E0,-7.725825906E-1,-5.126622319E-1,9.764810562E0,9.808732423E0
2.526534341E0,-7.486543655E-1,-5.413761139E-1,9.783952713E0,9.827476896E0
2.528981580E0,-7.510471940E-1,-5.341976285E-1,9.786345482E0,9.829648869E0
2.531428039E0,-7.677969933E-1,-5.341976285E-1,9.757631302E0,9.802359305E0
2.533873716E0,-7.917252183E-1,-5.341976285E-1,9.800702095E0,9.847129403E0
2.536320174E0,-7.749754190E-1,-5.270192027E-1,9.827023506E0,9.871612185E0
2.538767518E0,-7.917252183E-1,-5.294120312E-1,9.812666893E0,9.858779715E0
2.541213924E0,-7.845467329E-1,-4.839483798E-1,9.812666893E0,9.855868869E0
2.543659601E0,-8.108677864E-1,-4.668995142E-1,9.829416275E0,9.873850618E0
2.546106164E0,-8.252246976E-1,-4.310071766E-1,9.819845200E0,9.863879700E0
2.548553403E0,-8.470591903E-1,-4.166502357E-1,9.829416275E0,9.874640804E0
2.550999862E0,-8.395816684E-1,-3.759722710E-1,9.819845200E0,9.862839970E0
2.553445539E0,-8.204390407E-1,-3.544368446E-1,9.815059662E0,9.855665470E0
2.555891997E0,-8.228318691E-1,-3.376871049E-1,9.788738251E0,9.829063099E0
2.558339341E0,-8.228318691E-1,-3.352942765E-1,9.798309326E0,9.838513109E0
2.560785747E0,-8.012964725E-1,-3.329014480E-1,9.779167175E0,9.817586773E0
2.563231424E0,-8.252246976E-1,-3.400799036E-1,9.805487633E0,9.846026501E0
2.565677987E0,-8.324031830E-1,-3.233301640E-1,9.774381638E0,9.815089090E0
2.568125226E0,-8.371888399E-1,-3.496512175E-1,9.740881920E0,9.783042559E0
2.570571685E0,-8.347960114E-1,-3.233301640E-1,9.748060226E0,9.789080904E0
2.573017362E0,-8.470591903E-1,-3.257229924E-1,9.728918076E0,9.771154060E0
2.575463820E0,-8.395816684E-1,-3.687937856E-1,9.769596100E0,9.812538621E0
2.577911164E0,-8.371888399E-1,-3.568296731E-1,9.750452995E0,9.792831367E0
2.580357570E0,-8.276175261E-1,-3.807578981E-1,9.774381638E0,9.816744050E0
2.582803247E0,-8.252246976E-1,-3.687937856E-1,9.769596100E0,9.811320635E0
2.585249810E0,-8.084749579E-1,-3.975076675E-1,9.769596100E0,9.811047450E0
2.587697049E0,-8.252246976E-1,-4.142574072E-1,9.805487633E0,9.848867586E0
2.590143455E0,-8.180462122E-1,-4.286143482E-1,9.817452431E0,9.860795206E0
2.592589185E0,-8.084749579E-1,-4.334000051E-1,9.800702095E0,9.843537417E0
2.595035643E0,-8.371888399E-1,-4.597210586E-1,9.838987350E0,9.885236501E0
2.597482987E0,-8.324031830E-1,-4.501497746E-1,9.853344917E0,9.898683546E0
2.599929393E0,-8.422735929E-1,-4.381856322E-1,9.853344917E0,9.898981640E0
2.602375070E0,-8.132606149E-1,-4.477569461E-1,9.860523224E0,9.904130318E0
2.604821633E0,-8.252246976E-1,-4.214358926E-1,9.877272606E0,9.920641015E0
2.607268872E0,-8.300103545E-1,-4.286143482E-1,9.877272606E0,9.921347770E0
2.609715278E0,-8.542376757E-1,-4.070789516E-1,9.874879837E0,9.920115275E0
2.612161008E0,-8.494520187E-1,-3.783650696E-1,9.872487068E0,9.916185243E0
2.614607466E0,-8.566305041E-1,-3.520440459E-1,9.889236450E0,9.932509673E0
2.617054810E0,-8.685946465E-1,-3.257229924E-1,9.898808479E0,9.942180920E0
2.619501216E0,-8.542376757E-1,-2.970091105E-1,9.910772324E0,9.951951792E0
2.621946893E0,-8.733802438E-1,-2.778665423E-1,9.855737686E0,9.898260868E0
2.624393351E0,-8.829515576E-1,-2.659024298E-1,9.850952148E0,9.894016666E0
2.626840695E0,-8.949156404E-1,-2.706880569E-1,9.836594582E0,9.880928043E0
2.629287101E0,-8.997012973E-1,-2.443670183E-1,9.795916557E0,9.840180835E0
2.631732778E0,-9.164510965E-1,-2.635096014E-1,9.767203331E0,9.813642587E0
2.634179341E0,-9.140582681E-1,-2.515454888E-1,9.721739769E0,9.767855537E0
2.636626633E0,-8.997012973E-1,-2.706880569E-1,9.690632820E0,9.736072047E0
2.639073039E0,-8.973084688E-1,-2.826521695E-1,9.661918640E0,9.707611784E0
2.641518716E0,-8.685946465E-1,-3.017947674E-1,9.626026154E0,9.669845720E0
2.643965174E0,-8.566305041E-1,-3.209373355E-1,9.626026154E0,9.669394816E0
2.646412518E0,-8.757730722E-1,-3.448655605E-1,9.609276772E0,9.655263373E0
2.648858924E0,-8.709874153E-1,-3.879363835E-1,9.621240616E0,9.668370323E0
2.651304601E0,-8.590233326E-1,-4.094717801E-1,9.611669540E0,9.658663447E0
2.653751164E0,-8.470591903E-1,-4.238287210E-1,9.611669540E0,9.658226101E0
2.656198455E0,-8.347960114E-1,-4.429712892E-1,9.609276772E0,9.655636075E0
2.658644862E0,-8.108677864E-1,-4.764707983E-1,9.645169258E0,9.690914353E0
2.661090539E0,-8.132606149E-1,-4.764707983E-1,9.652347565E0,9.698259161E0
2.663536997E0,-8.180462122E-1,-4.863412082E-1,9.664311409E0,9.711057738E0
2.665984341E0,-7.677969933E-1,-4.692923427E-1,9.707382202E0,9.749000807E0
2.668430747E0,-7.701897621E-1,-4.429712892E-1,9.738489151E0,9.778935871E0
2.670876424E0,-7.462615371E-1,-4.166502357E-1,9.748060226E0,9.785457673E0
2.673322987E0,-7.295117974E-1,-3.975076675E-1,9.774381638E0,9.809624672E0
2.675770226E0,-7.414759398E-1,-3.831507266E-1,9.776774406E0,9.812334526E0
2.678216685E0,-7.103692293E-1,-3.999004960E-1,9.783952713E0,9.817854936E0
2.680662362E0,-7.175477147E-1,-4.094717801E-1,9.779167175E0,9.814002879E0
2.683108820E0,-7.654041648E-1,-4.166502357E-1,9.769596100E0,9.808386662E0
2.685556164E0,-7.701897621E-1,-3.879363835E-1,9.793523788E0,9.831418774E0
2.688002570E0,-7.869395614E-1,-4.118646085E-1,9.776774406E0,9.817037441E0
2.690448247E0,-8.108677864E-1,-3.999004960E-1,9.793523788E0,9.835168284E0
2.692894810E0,-8.228318691E-1,-4.022932947E-1,9.798309326E0,9.841024227E0
2.695342049E0,-8.252246976E-1,-3.879363835E-1,9.798309326E0,9.840648154E0
2.697788508E0,-8.566305041E-1,-3.975076675E-1,9.798309326E0,9.843713416E0
2.700234185E0,-8.877372146E-1,-3.711866140E-1,9.774381638E0,9.821628850E0
2.702680643E0,-8.877372146E-1,-3.616153300E-1,9.748060226E0,9.795076375E0
2.705127987E0,-8.733802438E-1,-3.352942765E-1,9.724132538E0,9.769031114E0
2.707574393E0,-8.709874153E-1,-3.209373355E-1,9.676275253E0,9.720695584E0
2.710020070E0,-8.853443861E-1,-3.065803945E-1,9.690632820E0,9.735819980E0
2.712466633E0,-8.709874153E-1,-2.730808854E-1,9.673882484E0,9.716851062E0
2.714913872E0,-8.662018180E-1,-2.659024298E-1,9.647562027E0,9.690018718E0
2.717360330E0,-8.614161611E-1,-2.706880569E-1,9.645169258E0,9.687342249E0
2.719806008E0,-8.829515576E-1,-2.515454888E-1,9.626026154E0,9.669708274E0
2.722252466E0,-8.925228715E-1,-2.347957194E-1,9.637990952E0,9.682076001E0
2.724699810E0,-8.973084688E-1,-2.036890239E-1,9.623633385E0,9.667521463E0
2.727146216E0,-9.092726111E-1,-2.060818523E-1,9.618847847E0,9.663926754E0
2.729591893E0,-8.829515576E-1,-1.965105534E-1,9.633204460E0,9.675579984E0
2.732038455E0,-9.020941257E-1,-2.108674943E-1,9.642776489E0,9.687175921E0
2.734485695E0,-9.308080077E-1,-2.132603228E-1,9.621240616E0,9.668513562E0
2.736932153E0,-9.140582681E-1,-2.371885478E-1,9.630811691E0,9.676998231E0
2.739377830E0,-9.092726111E-1,-2.443670183E-1,9.633204460E0,9.679107402E0
2.741824289E0,-9.044869542E-1,-2.395813614E-1,9.652347565E0,9.697592969E0
2.744271633E0,-8.949156404E-1,-2.443670183E-1,9.640383720E0,9.684915463E0
2.746718039E0,-8.662018180E-1,-2.659024298E-1,9.654740334E0,9.697165596E0
2.749163716E0,-8.542376757E-1,-2.419741899E-1,9.688240051E0,9.728836971E0
2.751610174E0,-8.084749579E-1,-2.754737139E-1,9.704989433E0,9.742501600E0
2.754057518E0,-8.084749579E-1,-2.946162820E-1,9.719346046E0,9.757362250E0
2.756503976E0,-7.749754190E-1,-3.161516786E-1,9.709774971E0,9.745782102E0
2.758949653E0,-7.486543655E-1,-3.281157911E-1,9.740881920E0,9.775117590E0
2.761396112E0,-7.725825906E-1,-3.376871049E-1,9.783952713E0,9.820216247E0
2.763843455E0,-7.749754190E-1,-3.711866140E-1,9.791131020E0,9.828764574E0
2.766289862E0,-7.558328509E-1,-3.664009571E-1,9.800702095E0,9.836630242E0
2.768735539E0,-7.630113363E-1,-3.520440459E-1,9.793523788E0,9.829508101E0
2.771181997E0,-7.654041648E-1,-3.544368446E-1,9.805487633E0,9.841699890E0
2.773629341E0,-7.582256794E-1,-3.496512175E-1,9.788738251E0,9.824284131E0
2.776075747E0,-7.677969933E-1,-3.544368446E-1,9.810274124E0,9.846655071E0
2.778521476E0,-7.654041648E-1,-3.400799036E-1,9.788738251E0,9.824504792E0
2.780967935E0,-7.510471940E-1,-3.376871049E-1,9.769596100E0,9.804239513E0
2.783415278E0,-7.486543655E-1,-3.281157911E-1,9.757631302E0,9.791808411E0
2.785861685E0,-7.606185079E-1,-3.257229924E-1,9.752845764E0,9.787882124E0
2.788307362E0,-7.701897621E-1,-3.424727321E-1,9.726525307E0,9.762979790E0
2.790753820E0,-7.989036441E-1,-3.448655605E-1,9.678668022E0,9.717705180E0
2.793201164E0,-7.845467329E-1,-3.161516786E-1,9.700203896E0,9.737012944E0
2.795647570E0,-7.917252183E-1,-2.922234535E-1,9.669096947E0,9.705856950E0
2.798093299E0,-7.773682475E-1,-2.874378264E-1,9.681061745E0,9.716474587E0
2.800539758E0,-7.869395614E-1,-2.754737139E-1,9.649954796E0,9.685906628E0
2.802987101E0,-7.821539044E-1,-2.659024298E-1,9.633204460E0,9.668562303E0
2.805433508E0,-8.180462122E-1,-2.443670183E-1,9.587740898E0,9.625678697E0
2.807879185E0,-8.084749579E-1,-2.347957194E-1,9.582955360E0,9.619864564E0
2.810325643E0,-7.965108156E-1,-2.084746659E-1,9.568598747E0,9.603956120E0
2.812772987E0,-8.012964725E-1,-2.156531364E-1,9.566205978E0,9.602128885E0
2.815219393E0,-8.180462122E-1,-2.228316069E-1,9.580562592E0,9.618005672E0
2.817665070E0,-8.156534433E-1,-2.252244353E-1,9.539884567E0,9.577338573E0
2.820111633E0,-8.204390407E-1,-2.419741899E-1,9.556634903E0,9.594839363E0
2.822558924E0,-8.084749579E-1,-2.276172489E-1,9.566205978E0,9.603006727E0
2.825005330E0,-8.180462122E-1,-2.395813614E-1,9.582955360E0,9.620791666E0
2.827451008E0,-8.542376757E-1,-2.539383173E-1,9.592526436E0,9.633834652E0
2.829897466E0,-8.518448472E-1,-2.491526604E-1,9.606884003E0,9.647794408E0
2.832344810E0,-8.997012973E-1,-2.706880569E-1,9.640383720E0,9.686058679E0
2.834791216E0,-8.997012973E-1,-2.874378264E-1,9.681061745E0,9.727026238E0
2.837236945E0,-9.236295223E-1,-3.376871049E-1,9.709774971E0,9.759449475E0
2.839683403E0,-9.164510965E-1,-3.329014480E-1,9.724132538E0,9.772894126E0
2.842130695E0,-8.973084688E-1,-3.257229924E-1,9.714560509E0,9.761349488E0
2.844577153E0,-8.662018180E-1,-3.209373355E-1,9.726525307E0,9.770291751E0
2.847022830E0,-8.614161611E-1,-3.209373355E-1,9.740881920E0,9.784161648E0
2.849469289E0,-8.518448472E-1,-3.065803945E-1,9.769596100E0,9.811454486E0
2.851916633E0,-8.371888399E-1,-3.233301640E-1,9.795916557E0,9.836941026E0
2.854363039E0,-8.395816684E-1,-2.946162820E-1,9.774381638E0,9.814796612E0
2.856808716E0,-8.108677864E-1,-2.922234535E-1,9.791131020E0,9.828995257E0
2.859255278E0,-8.156534433E-1,-2.826521695E-1,9.781559944E0,9.819577268E0
2.861702518E0,-7.845467329E-1,-2.754737139E-1,9.805487633E0,9.840680213E0
2.864148976E0,-7.797610760E-1,-2.778665423E-1,9.786345482E0,9.821292941E0
2.866594653E0,-7.797610760E-1,-2.659024298E-1,9.774381638E0,9.809040108E0
2.869041112E0,-8.060821295E-1,-2.324029058E-1,9.788738251E0,9.824620911E0
2.871488455E0,-7.869395614E-1,-2.347957194E-1,9.781559944E0,9.815972588E0
2.873934862E0,-7.821539044E-1,-1.917249113E-1,9.779167175E0,9.812269555E0
2.876380539E0,-7.582256794E-1,-1.989033818E-1,9.736096382E0,9.767601625E0
2.878827101E0,-7.677969933E-1,-1.941177398E-1,9.700203896E0,9.732479105E0
2.881274341E0,-7.917252183E-1,-1.773679852E-1,9.664311409E0,9.698309298E0
2.883720799E0,-7.749754190E-1,-1.965105534E-1,9.626026154E0,9.659170917E0
2.886166476E0,-7.893323898E-1,-2.395813614E-1,9.592526436E0,9.627928556E0
2.888612935E0,-7.773682475E-1,-2.419741899E-1,9.590133667E0,9.624630728E0
2.891060278E0,-8.132606149E-1,-2.970091105E-1,9.563813210E0,9.602923011E0
2.893506685E0,-8.108677864E-1,-3.281157911E-1,9.575777054E0,9.615647286E0
2.895952362E0,-8.395816684E-1,-3.161516786E-1,9.592526436E0,9.634386991E0
2.898398924E0,-8.709874153E-1,-3.400799036E-1,9.609276772E0,9.654660713E0
2.900846164E0,-8.805587292E-1,-3.496512175E-1,9.604491234E0,9.651108305E0
2.903292622E0,-8.733802438E-1,-3.472583890E-1,9.616455078E0,9.662276632E0
2.905738299E0,-9.188438654E-1,-3.305086195E-1,9.633204460E0,9.682568779E0
2.908184758E0,-9.212366939E-1,-3.209373355E-1,9.630811691E0,9.680093577E0
2.910632101E0,-9.379864931E-1,-3.161516786E-1,9.637990952E0,9.688686192E0
2.913078508E0,-9.284151793E-1,-3.065803945E-1,9.618847847E0,9.668411461E0
2.915524185E0,-9.427721500E-1,-2.730808854E-1,9.642776489E0,9.692601865E0
2.917970747E0,-9.308080077E-1,-2.419741899E-1,9.659525871E0,9.707285672E0
2.920417987E0,-9.140582681E-1,-2.036890239E-1,9.647562027E0,9.692906932E0
2.922864445E0,-9.044869542E-1,-1.773679852E-1,9.652347565E0,9.696255440E0
2.925310122E0,-8.733802438E-1,-1.462612897E-1,9.659525871E0,9.700032241E0
2.927756580E0,-8.829515576E-1,-1.701895148E-1,9.657133102E0,9.698906520E0
2.930203924E0,-8.901300430E-1,-1.654038578E-1,9.652347565E0,9.694715233E0
2.932650330E0,-8.685946465E-1,-1.677966863E-1,9.678668022E0,9.719013688E0
2.935096008E0,-8.949156404E-1,-1.797607988E-1,9.659525871E0,9.702557807E0
2.937542570E0,-8.829515576E-1,-1.749751568E-1,9.681061745E0,9.722817301E0
2.939989810E0,-8.805587292E-1,-1.582254022E-1,9.697811127E0,9.738991714E0
2.942436268E0,-8.446664214E-1,-1.486541033E-1,9.700203896E0,9.738044723E0
2.944881945E0,-8.276175261E-1,-1.271187067E-1,9.688240051E0,9.724356289E0
2.947328403E0,-8.228318691E-1,-1.366899908E-1,9.666704178E0,9.702623671E0
2.949775747E0,-8.108677864E-1,-1.582254022E-1,9.669096947E0,9.704327777E0
2.952222153E0,-8.228318691E-1,-1.869392693E-1,9.673882484E0,9.710612797E0
2.954667830E0,-8.252246976E-1,-1.869392693E-1,9.654740334E0,9.691746643E0
2.957114393E0,-7.989036441E-1,-2.395813614E-1,9.661918640E0,9.697851209E0
2.959561633E0,-7.869395614E-1,-2.395813614E-1,9.695418358E0,9.730252321E0
2.962008091E0,-8.204390407E-1,-2.419741899E-1,9.714560509E0,9.752146308E0
2.964453768E0,-8.084749579E-1,-2.611167729E-1,9.719346046E0,9.756408217E0
2.966900226E0,-8.156534433E-1,-2.730808854E-1,9.716953278E0,9.754949754E0
2.969347570E0,-8.347960114E-1,-2.778665423E-1,9.762416840E0,9.801983307E0
2.971793976E0,-8.395816684E-1,-2.922234535E-1,9.776774406E0,9.817108012E0
2.974239653E0,-8.542376757E-1,-3.017947674E-1,9.779167175E0,9.821044381E0
2.976686216E0,-8.446664214E-1,-3.305086195E-1,9.822237968E0,9.864028387E0
2.979133455E0,-8.422735929E-1,-3.209373355E-1,9.879665375E0,9.920696220E0
2.981579914E0,-8.566305041E-1,-3.400799036E-1,9.884450912E0,9.927327939E0
2.984025591E0,-8.470591903E-1,-3.352942765E-1,9.903594017E0,9.945406275E0
2.986472049E0,-8.709874153E-1,-3.305086195E-1,9.932307243E0,9.975900070E0
2.988919393E0,-8.709874153E-1,-3.113660514E-1,9.937093735E0,9.980050089E0
2.991365799E0,-8.877372146E-1,-2.754737139E-1,9.944272041E0,9.987617812E0
2.993811476E0,-8.997012973E-1,-2.730808854E-1,9.949057579E0,9.993386929E0
2.996258039E0,-8.781659007E-1,-2.826521695E-1,9.937093735E0,9.979824622E0
2.998705278E0,-8.853443861E-1,-2.730808854E-1,9.934700966E0,9.977809937E0
3.001151685E0,-9.044869542E-1,-2.850449979E-1,9.961320877E0,1.000636102E1
3.003597414E0,-9.068797827E-1,-2.467598319E-1,9.910772324E0,9.955236281E0
3.006043872E0,-8.925228715E-1,-2.611167729E-1,9.905986786E0,9.949540354E0
3.008491216E0,-9.068797827E-1,-2.324029058E-1,9.872487068E0,9.916775835E0
3.010937622E0,-9.308080077E-1,-2.276172489E-1,9.848558426E0,9.895065246E0
3.013383299E0,-9.140582681E-1,-2.324029058E-1,9.829416275E0,9.874560139E0
3.015829862E0,-9.260223508E-1,-2.228316069E-1,9.805487633E0,9.851637378E0
3.018277101E0,-9.068797827E-1,-2.108674943E-1,9.779167175E0,9.823390794E0
3.020723560E0,-8.973084688E-1,-2.012962103E-1,9.760024071E0,9.803252140E0
3.023169237E0,-8.877372146E-1,-2.132603228E-1,9.726525307E0,9.769281031E0
3.025615695E0,-8.829515576E-1,-2.300100774E-1,9.704989433E0,9.747785799E0
3.028063039E0,-8.901300430E-1,-2.563311160E-1,9.676275253E0,9.720511299E0
3.030509445E0,-8.757730722E-1,-2.563311160E-1,9.630811691E0,9.673945315E0
3.032955122E0,-9.020941257E-1,-2.802593410E-1,9.604491234E0,9.650832657E0
3.035401580E0,-8.949156404E-1,-2.898306549E-1,9.606884003E0,9.652828397E0
3.037848924E0,-8.973084688E-1,-3.161516786E-1,9.580562592E0,9.627683727E0
3.040295383E0,-8.805587292E-1,-2.994019389E-1,9.592526436E0,9.637509461E0
3.042741060E0,-8.853443861E-1,-3.137588799E-1,9.609276772E0,9.655075318E0
3.045187518E0,-8.997012973E-1,-3.089732230E-1,9.618847847E0,9.665772643E0
3.047634862E0,-8.709874153E-1,-2.946162820E-1,9.633204460E0,9.676985378E0
3.050081268E0,-8.614161611E-1,-2.898306549E-1,9.647562027E0,9.690278256E0
3.052526945E0,-8.494520187E-1,-2.802593410E-1,9.673882484E0,9.715148808E0
3.054973508E0,-8.494520187E-1,-2.730808854E-1,9.693025589E0,9.734006727E0
3.057420747E0,-8.542376757E-1,-2.706880569E-1,9.702596664E0,9.743889165E0
3.059867205E0,-8.542376757E-1,-2.682952285E-1,9.712167740E0,9.753353605E0
3.062312883E0,-8.733802438E-1,-2.515454888E-1,9.697811127E0,9.740308457E0
3.064759341E0,-8.371888399E-1,-2.587239444E-1,9.707382202E0,9.746850386E0
3.067206685E0,-8.518448472E-1,-2.563311160E-1,9.695418358E0,9.736143098E0
3.069653091E0,-8.805587292E-1,-2.539383173E-1,9.712167740E0,9.755309864E0
3.072098768E0,-8.829515576E-1,-2.228316069E-1,9.700203896E0,9.742854458E0
3.074545226E0,-8.757730722E-1,-2.419741899E-1,9.736096382E0,9.778399805E0
3.076992570E0,-8.709874153E-1,-2.228316069E-1,9.726525307E0,9.767986873E0
3.079439028E0,-8.805587292E-1,-2.036890239E-1,9.731310844E0,9.773192091E0
3.081884705E0,-9.116654396E-1,-2.491526604E-1,9.743274689E0,9.789004678E0
3.084331164E0,-8.997012973E-1,-2.371885478E-1,9.712167740E0,9.756634821E0
3.086778508E0,-9.140582681E-1,-2.515454888E-1,9.752845764E0,9.798815140E0
3.089224914E0,-9.403793216E-1,-2.611167729E-1,9.743274689E0,9.792032317E0
3.091670591E0,-9.140582681E-1,-2.635096014E-1,9.740881920E0,9.787222303E0
3.094117049E0,-9.092726111E-1,-2.778665423E-1,9.728918076E0,9.775266412E0
3.096564393E0,-8.685946465E-1,-2.874378264E-1,9.707382202E0,9.750402370E0
3.099010851E0,-8.853443861E-1,-2.946162820E-1,9.693025589E0,9.737832331E0
3.101456528E0,-8.805587292E-1,-3.041875660E-1,9.700203896E0,9.744838088E0
3.103902987E0,-8.662018180E-1,-3.113660514E-1,9.712167740E0,9.755688423E0
3.106350330E0,-8.542376757E-1,-3.041875660E-1,9.693025589E0,9.735347819E0
3.108796737E0,-8.590233326E-1,-2.922234535E-1,9.693025589E0,9.735402442E0
3.111242414E0,-8.422735929E-1,-2.946162820E-1,9.704989433E0,9.745924454E0
3.113688976E0,-8.180462122E-1,-3.065803945E-1,9.721739769E0,9.760912625E0
3.116136216E0,-8.084749579E-1,-3.185445070E-1,9.712167740E0,9.750964289E0
3.118582674E0,-7.821539044E-1,-3.065803945E-1,9.693025589E0,9.729362843E0
3.121028351E0,-7.941179872E-1,-2.682952285E-1,9.683454514E0,9.719665479E0
3.123474810E0,-7.965108156E-1,-2.706880569E-1,9.702596664E0,9.738998077E0
3.125922153E0,-7.965108156E-1,-2.826521695E-1,9.704989433E0,9.741721697E0
3.128368560E0,-8.300103545E-1,-2.467598319E-1,9.704989433E0,9.743542862E0
3.130814237E0,-8.395816684E-1,-2.324029058E-1,9.712167740E0,9.751159454E0
3.133260695E0,-8.590233326E-1,-2.180459648E-1,9.724132538E0,9.764436427E0
3.135708039E0,-8.733802438E-1,-2.204387933E-1,9.702596664E0,9.744319799E0
3.138154497E0,-8.590233326E-1,-2.252244353E-1,9.659525871E0,9.700262223E0
3.140600174E0,-8.614161611E-1,-2.395813614E-1,9.661918640E0,9.703200958E0
3.143046633E0,-8.685946465E-1,-2.515454888E-1,9.626026154E0,9.668407899E0
3.145493976E0,-8.781659007E-1,-2.778665423E-1,9.628418922E0,9.672374895E0
3.147940383E0,-8.566305041E-1,-2.802593410E-1,9.614062309E0,9.656218473E0
3.150386060E0,-8.685946465E-1,-2.874378264E-1,9.604491234E0,9.647970202E0
3.152832518E0,-8.829515576E-1,-2.970091105E-1,9.597312927E0,9.642418436E0
3.155279862E0,-8.901300430E-1,-3.209373355E-1,9.570991516E0,9.617651006E0
3.157726268E0,-8.781659007E-1,-3.041875660E-1,9.570991516E0,9.616006657E0
3.160171997E0,-8.949156404E-1,-3.017947674E-1,9.554242134E0,9.600807093E0
3.162618455E0,-8.733802438E-1,-2.970091105E-1,9.563813210E0,9.608201214E0
3.165065799E0,-8.685946465E-1,-2.970091105E-1,9.530313492E0,9.574421462E0
3.167512205E0,-8.853443861E-1,-2.922234535E-1,9.520742416E0,9.566282736E0
3.169957883E0,-8.614161611E-1,-2.970091105E-1,9.518349648E0,9.561863429E0
3.172404445E0,-8.709874153E-1,-3.089732230E-1,9.523135185E0,9.567872663E0
3.174851685E0,-8.422735929E-1,-2.946162820E-1,9.547062874E0,9.588672123E0
3.177298091E0,-8.371888399E-1,-2.874378264E-1,9.551849365E0,9.592774987E0
3.179743820E0,-8.395816684E-1,-2.826521695E-1,9.578169823E0,9.619050202E0
3.182190278E0,-8.132606149E-1,-2.563311160E-1,9.599705696E0,9.637502162E0
3.184637622E0,-8.132606149E-1,-2.659024298E-1,9.630811691E0,9.668745046E0
3.187084028E0,-8.012964725E-1,-2.706880569E-1,9.649954796E0,9.686948726E0
3.189529705E0,-8.012964725E-1,-2.324029058E-1,9.693025589E0,9.728865927E0
3.191976164E0,-8.012964725E-1,-2.347957194E-1,9.733703613E0,9.769451934E0
3.194423508E0,-8.132606149E-1,-2.324029058E-1,9.738489151E0,9.775150888E0
3.196869914E0,-8.228318691E-1,-2.252244353E-1,9.764810562E0,9.802005083E0
3.199315643E0,-8.395816684E-1,-2.587239444E-1,9.764810562E0,9.804252178E0
3.201762101E0,-8.422735929E-1,-2.611167729E-1,9.786345482E0,9.825994335E0
3.204209445E0,-8.395816684E-1,-2.563311160E-1,9.750452995E0,9.789889511E0
3.206655851E0,-8.494520187E-1,-2.539383173E-1,9.769596100E0,9.809743185E0
3.209101528E0,-8.733802438E-1,-2.635096014E-1,9.757631302E0,9.800183620E0
3.211547987E0,-8.518448472E-1,-2.635096014E-1,9.740881920E0,9.781608126E0
3.213995330E0,-8.590233326E-1,-2.802593410E-1,9.714560509E0,9.756492826E0
3.216441789E0,-8.614161611E-1,-2.682952285E-1,9.690632820E0,9.732542555E0
3.218887466E0,-8.518448472E-1,-2.635096014E-1,9.664311409E0,9.705358930E0
3.221333924E0,-8.566305041E-1,-2.515454888E-1,9.657133102E0,9.698314839E0
3.223781268E0,-8.638089895E-1,-2.898306549E-1,9.654740334E0,9.697637789E0
3.226227674E0,-8.757730722E-1,-2.730808854E-1,9.618847847E0,9.662493754E0
3.228673351E0,-8.446664214E-1,-2.874378264E-1,9.621240616E0,9.662523110E0
3.231119914E0,-8.590233326E-1,-2.802593410E-1,9.597312927E0,9.639755277E0
3.233567153E0,-8.518448472E-1,-3.113660514E-1,9.561420441E0,9.604340129E0
3.236013560E0,-8.494520187E-1,-2.898306549E-1,9.575777054E0,9.617748007E0
3.238459289E0,-8.470591903E-1,-3.448655605E-1,9.563813210E0,9.607443189E0
3.240905747E0,-8.518448472E-1,-3.233301640E-1,9.578169823E0,9.621409418E0
3.243353091E0,-8.446664214E-1,-3.257229924E-1,9.575777054E0,9.618475088E0
3.245799497E0,-8.395816684E-1,-3.281157911E-1,9.575777054E0,9.618111225E0
3.248245174E0,-8.084749579E-1,-3.257229924E-1,9.604491234E0,9.643960757E0
3.250691737E0,-7.941179872E-1,-3.017947674E-1,9.606884003E0,9.644372644E0
3.253138976E0,-8.300103545E-1,-3.017947674E-1,9.628418922E0,9.668839031E0
3.255585435E0,-8.252246976E-1,-2.706880569E-1,9.652347565E0,9.691340533E0
3.258031112E0,-8.566305041E-1,-2.778665423E-1,9.683454514E0,9.725241228E0
3.260477570E0,-8.324031830E-1,-2.659024298E-1,9.714560509E0,9.753783114E0
3.262924914E0,-8.276175261E-1,-2.659024298E-1,9.690632820E0,9.729543634E0
3.265371320E0,-8.036893010E-1,-2.611167729E-1,9.731310844E0,9.767932699E0
3.267816997E0,-8.204390407E-1,-2.635096014E-1,9.721739769E0,9.759855617E0
3.270263560E0,-7.917252183E-1,-2.682952285E-1,9.721739769E0,9.757614221E0
3.272710799E0,-8.036893010E-1,-2.682952285E-1,9.736096382E0,9.772894739E0
3.275157205E0,-8.518448472E-1,-3.089732230E-1,9.736096382E0,9.778173493E0
3.277602935E0,-8.614161611E-1,-3.257229924E-1,9.724132538E0,9.767644900E0
3.280049393E0,-8.805587292E-1,-3.137588799E-1,9.740881920E0,9.785632779E0
3.282496737E0,-8.877372146E-1,-3.281157911E-1,9.760024071E0,9.805804770E0
3.284943143E0,-8.901300430E-1,-3.137588799E-1,9.776774406E0,9.822224490E0
3.287388820E0,-8.997012973E-1,-3.257229924E-1,9.760024071E0,9.806815373E0
3.289835383E0,-9.020941257E-1,-3.137588799E-1,9.762416840E0,9.809026506E0
3.292282622E0,-9.116654396E-1,-3.496512175E-1,9.724132538E0,9.773031437E0
3.294729080E0,-9.116654396E-1,-3.400799036E-1,9.750452995E0,9.798883703E0
3.297174758E0,-8.853443861E-1,-3.640081584E-1,9.748060226E0,9.794948433E0
3.299621216E0,-8.781659007E-1,-3.735794425E-1,9.745667458E0,9.792281202E0
3.302068560E0,-8.638089895E-1,-3.472583890E-1,9.760024071E0,9.804326811E0
3.304514966E0,-8.252246976E-1,-3.329014480E-1,9.736096382E0,9.776675915E0
3.306960643E0,-8.371888399E-1,-3.089732230E-1,9.743274689E0,9.784055972E0
3.309407205E0,-8.276175261E-1,-2.994019389E-1,9.728918076E0,9.768645720E0
3.311854445E0,-8.108677864E-1,-2.778665423E-1,9.719346046E0,9.757069435E0
3.314300903E0,-8.156534433E-1,-2.659024298E-1,9.724132538E0,9.761902901E0
3.316746580E0,-8.252246976E-1,-2.730808854E-1,9.726525307E0,9.765288706E0
3.319193039E0,-8.012964725E-1,-2.682952285E-1,9.719346046E0,9.756010759E0
3.321640383E0,-7.989036441E-1,-2.347957194E-1,9.733703613E0,9.769255964E0
3.324086789E0,-7.941179872E-1,-2.467598319E-1,9.743274689E0,9.778697022E0
3.326532466E0,-7.701897621E-1,-2.539383173E-1,9.731310844E0,9.765044172E0
3.328979028E0,-7.725825906E-1,-2.659024298E-1,9.721739769E0,9.756014150E0
3.331426268E0,-7.749754190E-1,-2.754737139E-1,9.738489151E0,9.773159346E0
3.333872726E0,-7.749754190E-1,-2.922234535E-1,9.721739769E0,9.756956779E0
3.336318403E0,-8.084749579E-1,-3.233301640E-1,9.702596664E0,9.741588997E0
3.338764862E0,-8.347960114E-1,-3.329014480E-1,9.697811127E0,9.739365914E0
3.341212205E0,-8.542376757E-1,-3.424727321E-1,9.688240051E0,9.731855161E0
3.343658612E0,-8.733802438E-1,-3.424727321E-1,9.693025589E0,9.738317395E0
3.346104289E0,-9.068797827E-1,-3.544368446E-1,9.683454514E0,9.732283788E0
3.348550747E0,-8.877372146E-1,-3.400799036E-1,9.704989433E0,9.751438438E0
3.350998091E0,-9.140582681E-1,-3.424727321E-1,9.664311409E0,9.713480586E0
3.353444549E0,-9.044869542E-1,-3.472583890E-1,9.683454514E0,9.731802318E0
3.355890226E0,-9.020941257E-1,-3.448655605E-1,9.676275253E0,9.724351333E0
3.358336685E0,-8.901300430E-1,-3.544368446E-1,9.669096947E0,9.716449595E0
3.360784028E0,-9.164510965E-1,-3.592225015E-1,9.666704178E0,9.716691468E0
3.363230435E0,-9.260223508E-1,-3.544368446E-1,9.676275253E0,9.726944312E0
3.365676112E0,-9.547362328E-1,-3.664009571E-1,9.678668022E0,9.732542608E0
3.368122674E0,-9.547362328E-1,-3.711866140E-1,9.719346046E0,9.773176983E0
3.370569914E0,-9.308080077E-1,-3.759722710E-1,9.731310844E0,9.782953002E0
3.373016372E0,-9.355936646E-1,-3.472583890E-1,9.776774406E0,9.827575575E0
3.375462049E0,-9.499505758E-1,-2.922234535E-1,9.810274124E0,9.860490811E0
3.377908508E0,-9.379864931E-1,-2.802593410E-1,9.793523788E0,9.842330626E0
3.380355851E0,-9.667003751E-1,-2.778665423E-1,9.786345482E0,9.837900046E0
3.382802258E0,-9.523434043E-1,-2.587239444E-1,9.798309326E0,9.847881076E0
3.385247935E0,-9.523434043E-1,-2.587239444E-1,9.829416275E0,9.878831932E0
3.387694497E0,-9.379864931E-1,-2.395813614E-1,9.817452431E0,9.865069190E0
3.390141737E0,-9.188438654E-1,-2.467598319E-1,9.824630737E0,9.870589323E0
3.392588195E0,-9.116654396E-1,-2.635096014E-1,9.800702095E0,9.846539125E0
3.395033872E0,-8.973084688E-1,-2.635096014E-1,9.791131020E0,9.835692474E0
3.397480330E0,-9.020941257E-1,-2.898306549E-1,9.795916557E0,9.841633849E0
3.399927674E0,-9.020941257E-1,-2.970091105E-1,9.781559944E0,9.827558352E0
3.402374080E0,-8.901300430E-1,-3.233301640E-1,9.748060226E0,9.793954874E0
3.404819758E0,-8.925228715E-1,-3.352942765E-1,9.716953278E0,9.763616150E0
3.407266320E0,-8.757730722E-1,-3.113660514E-1,9.690632820E0,9.735106150E0
3.409713560E0,-8.997012973E-1,-2.898306549E-1,9.685847282E0,9.731860141E0
3.412160018E0,-8.877372146E-1,-3.065803945E-1,9.683454514E0,9.728893062E0
3.414605695E0,-8.877372146E-1,-3.017947674E-1,9.673882484E0,9.719216006E0
3.417052153E0,-8.877372146E-1,-3.161516786E-1,9.657133102E0,9.703002061E0
3.419499497E0,-8.805587292E-1,-3.329014480E-1,9.623633385E0,9.669567031E0
3.421945903E0,-8.925228715E-1,-3.233301640E-1,9.609276772E0,9.656051965E0
3.424391580E0,-8.638089895E-1,-3.305086195E-1,9.606884003E0,9.651301578E0
3.426838143E0,-8.347960114E-1,-3.424727321E-1,9.628418922E0,9.670606129E0
3.429285383E0,-8.300103545E-1,-3.352942765E-1,9.606884003E0,9.648500385E0
3.431731841E0,-8.180462122E-1,-3.281157911E-1,9.640383720E0,9.680591813E0
3.434177518E0,-8.084749579E-1,-3.185445070E-1,9.633204460E0,9.672317744E0
3.436623976E0,-8.252246976E-1,-3.424727321E-1,9.652347565E0,9.693611137E0
3.439071320E0,-8.347960114E-1,-3.257229924E-1,9.673882484E0,9.715296299E0
3.441517726E0,-8.276175261E-1,-3.329014480E-1,9.688240051E0,9.729222448E0
3.443963403E0,-8.446664214E-1,-3.161516786E-1,9.716953278E0,9.758718883E0
3.446409966E0,-8.518448472E-1,-3.257229924E-1,9.760024071E0,9.802540741E0
3.448857205E0,-8.757730722E-1,-3.089732230E-1,9.800702095E0,9.844602810E0
3.451303664E0,-8.614161611E-1,-2.946162820E-1,9.834201813E0,9.876252419E0
3.453749341E0,-8.566305041E-1,-2.563311160E-1,9.838987350E0,9.879534075E0
3.456195799E0,-8.805587292E-1,-2.371885478E-1,9.898808479E0,9.940726905E0
3.458643143E0,-8.853443861E-1,-2.156531364E-1,9.913165092E0,9.954957715E0
3.461089549E0,-8.829515576E-1,-2.084746659E-1,9.937093735E0,9.978421570E0
3.463535226E0,-8.901300430E-1,-2.371885478E-1,9.954142570E0,9.996676658E0
3.465981789E0,-8.638089895E-1,-2.419741899E-1,9.975677490E0,1.001593025E1
3.468429028E0,-8.949156404E-1,-2.467598319E-1,9.997213364E0,1.004022109E1
3.470875487E0,-8.733802438E-1,-2.467598319E-1,1.000678444E1,1.004785640E1
3.473321164E0,-8.733802438E-1,-2.754737139E-1,1.000199890E1,1.004383696E1
3.475767622E0,-8.925228715E-1,-2.922234535E-1,9.980463028E0,1.002455155E1
3.478214966E0,-8.901300430E-1,-3.089732230E-1,9.985248566E0,1.002960542E1
3.480661372E0,-8.901300430E-1,-2.994019389E-1,9.958928108E0,1.000311062E1
3.483107049E0,-8.781659007E-1,-2.994019389E-1,9.939486504E0,9.982695469E0
3.485553612E0,-8.805587292E-1,-2.970091105E-1,9.908379555E0,9.951863317E0
3.488000903E0,-8.662018180E-1,-3.017947674E-1,9.896415710E0,9.938834418E0
3.490447310E0,-8.590233326E-1,-3.137588799E-1,9.877272606E0,9.919520142E0
3.492892987E0,-8.781659007E-1,-3.089732230E-1,9.824630737E0,9.868637643E0
3.495339445E0,-8.781659007E-1,-3.137588799E-1,9.798309326E0,9.842585313E0
3.497786789E0,-8.757730722E-1,-3.065803945E-1,9.774381638E0,9.818325031E0
3.500233195E0,-8.925228715E-1,-3.113660514E-1,9.738489151E0,9.784258625E0
3.502678924E0,-9.044869542E-1,-2.850449979E-1,9.724132538E0,9.770266164E0
3.505125383E0,-9.116654396E-1,-2.970091105E-1,9.654740334E0,9.702234753E0
3.507572726E0,-9.284151793E-1,-2.898306549E-1,9.616455078E0,9.665514204E0
3.510019133E0,-9.284151793E-1,-3.065803945E-1,9.559027672E0,9.608899849E0
3.512464810E0,-9.475577474E-1,-3.329014480E-1,9.561420441E0,9.614023606E0
3.514911268E0,-9.332008362E-1,-3.329014480E-1,9.551849365E0,9.603099160E0
3.517358612E0,-9.523434043E-1,-3.807578981E-1,9.568598747E0,9.623409818E0
3.519805018E0,-9.451649189E-1,-3.855435550E-1,9.563813210E0,9.618134105E0
3.522250747E0,-9.547362328E-1,-3.807578981E-1,9.575777054E0,9.630784186E0
3.524697205E0,-9.379864931E-1,-3.783650696E-1,9.611669540E0,9.664738493E0
3.527144549E0,-9.236295223E-1,-3.616153300E-1,9.645169258E0,9.696037704E0
3.529590955E0,-9.379864931E-1,-3.592225015E-1,9.695418358E0,9.747307146E0
3.532036633E0,-9.427721500E-1,-3.209373355E-1,9.716953278E0,9.767855502E0
3.534483091E0,-9.427721500E-1,-3.089732230E-1,9.776774406E0,9.826983340E0
3.536930435E0,-9.403793216E-1,-2.730808854E-1,9.824630737E0,9.873310264E0
3.539376841E0,-9.260223508E-1,-2.515454888E-1,9.872487068E0,9.919011717E0
3.541822570E0,-9.308080077E-1,-2.276172489E-1,9.898808479E0,9.945080315E0
3.544269028E0,-9.212366939E-1,-2.132603228E-1,9.934700966E0,9.979601209E0
3.546716372E0,-9.044869542E-1,-1.893320978E-1,9.961320877E0,1.000409201E1
3.549162778E0,-9.188438654E-1,-2.084746659E-1,9.975677490E0,1.002007371E1
3.551608455E0,-9.140582681E-1,-1.677966863E-1,9.968499184E0,1.001172484E1
3.554055018E0,-9.332008362E-1,-1.965105534E-1,9.985248566E0,1.003068637E1
3.556502258E0,-9.332008362E-1,-2.132603228E-1,9.970891953E0,1.001673750E1
3.558948716E0,-9.092726111E-1,-2.204387933E-1,9.939486504E0,9.983424357E0
3.561394393E0,-8.949156404E-1,-2.324029058E-1,9.937093735E0,9.980015882E0
3.563840851E0,-8.829515576E-1,-2.443670183E-1,9.898808479E0,9.941113016E0
3.566288195E0,-8.805587292E-1,-2.563311160E-1,9.894022942E0,9.936436951E0
3.568734601E0,-8.662018180E-1,-2.587239444E-1,9.865308762E0,9.906642248E0
3.571180278E0,-8.781659007E-1,-2.706880569E-1,9.807881355E0,9.850836718E0
3.573626841E0,-8.877372146E-1,-2.970091105E-1,9.748060226E0,9.792904061E0
3.576074080E0,-8.805587292E-1,-2.946162820E-1,9.719346046E0,9.763599234E0
3.578520539E0,-8.877372146E-1,-3.305086195E-1,9.664311409E0,9.710624507E0
3.580966216E0,-8.853443861E-1,-3.520440459E-1,9.642776489E0,9.689732097E0
3.583412674E0,-9.044869542E-1,-3.855435550E-1,9.626026154E0,9.676110789E0
3.585860018E0,-9.044869542E-1,-3.903291821E-1,9.602098465E0,9.652499596E0
3.588306424E0,-8.901300430E-1,-3.879363835E-1,9.582955360E0,9.632022611E0
3.590752101E0,-9.044869542E-1,-3.975076675E-1,9.592526436E0,9.643270836E0
3.593198664E0,-9.020941257E-1,-3.951148391E-1,9.592526436E0,9.642948355E0
3.595645903E0,-8.997012973E-1,-4.142574072E-1,9.623633385E0,9.674471104E0
3.598092362E0,-8.925228715E-1,-3.975076675E-1,9.642776489E0,9.692148773E0
3.600538039E0,-8.853443861E-1,-3.807578981E-1,9.673882484E0,9.721770085E0
3.602984497E0,-8.853443861E-1,-3.903291821E-1,9.714560509E0,9.762626564E0
3.605431841E0,-8.805587292E-1,-3.640081584E-1,9.762416840E0,9.808805644E0
3.607878247E0,-8.877372146E-1,-3.448655605E-1,9.788738251E0,9.834958371E0
3.610323924E0,-8.997012973E-1,-3.329014480E-1,9.836594582E0,9.883262557E0
3.612770487E0,-9.044869542E-1,-3.113660514E-1,9.855737686E0,9.902050838E0
3.615217726E0,-8.877372146E-1,-2.994019389E-1,9.872487068E0,9.916840212E0
3.617664185E0,-8.949156404E-1,-2.898306549E-1,9.901201248E0,9.945786141E0
3.620109862E0,-9.188438654E-1,-2.778665423E-1,9.920343399E0,9.966679338E0
3.622556320E0,-9.044869542E-1,-2.587239444E-1,9.915557861E0,9.960086467E0
3.625003664E0,-9.379864931E-1,-2.778665423E-1,9.934700966E0,9.982750711E0
3.627450070E0,-9.284151793E-1,-2.754737139E-1,9.949057579E0,9.996078592E0
3.629895747E0,-9.379864931E-1,-2.754737139E-1,9.946664810E0,9.994590801E0
3.632342310E0,-9.284151793E-1,-2.778665423E-1,9.951749802E0,9.998824365E0
3.634789549E0,-9.427721500E-1,-2.682952285E-1,9.929914474E0,9.978176343E0
3.637236008E0,-9.379864931E-1,-2.563311160E-1,9.922736168E0,9.970266664E0
3.639681685E0,-9.547362328E-1,-2.611167729E-1,9.882058144E0,9.931504236E0
3.642128143E0,-9.475577474E-1,-2.922234535E-1,9.882058144E0,9.931683311E0
3.644575487E0,-9.427721500E-1,-2.970091105E-1,9.838987350E0,9.888513833E0
3.647021893E0,-9.188438654E-1,-2.994019389E-1,9.795916557E0,9.843469752E0
3.649467570E0,-9.092726111E-1,-3.041875660E-1,9.755238533E0,9.802243906E0
3.651914133E0,-9.020941257E-1,-3.257229924E-1,9.736096382E0,9.783222477E0
3.654361372E0,-9.020941257E-1,-3.233301640E-1,9.690632820E0,9.737899191E0
3.656807830E0,-9.068797827E-1,-3.257229924E-1,9.657133102E0,9.705088674E0
3.659253508E0,-9.164510965E-1,-3.161516786E-1,9.628418922E0,9.677101087E0
3.661699966E0,-8.949156404E-1,-3.305086195E-1,9.582955360E0,9.630324158E0
3.664147310E0,-9.188438654E-1,-3.161516786E-1,9.537491798E0,9.586864750E0
3.666593716E0,-9.020941257E-1,-3.329014480E-1,9.525527954E0,9.573937538E0
3.669039445E0,-8.829515576E-1,-3.783650696E-1,9.482457161E0,9.530989318E0
3.671485903E0,-8.925228715E-1,-3.951148391E-1,9.487242699E0,9.537320737E0
3.673933247E0,-9.068797827E-1,-4.214358926E-1,9.487242699E0,9.539801527E0
3.676379653E0,-8.949156404E-1,-4.286143482E-1,9.487242699E0,9.538991471E0
3.678825330E0,-8.925228715E-1,-4.477569461E-1,9.513564110E0,9.565823824E0
3.681271789E0,-8.805587292E-1,-4.381856322E-1,9.515956879E0,9.566651747E0
3.683719133E0,-8.829515576E-1,-4.022932947E-1,9.539884567E0,9.589100109E0
3.686165539E0,-8.685946465E-1,-3.711866140E-1,9.559027672E0,9.605584115E0
3.688611268E0,-8.638089895E-1,-3.257229924E-1,9.609276772E0,9.653520680E0
3.691057726E0,-8.638089895E-1,-3.113660514E-1,9.633204460E0,9.676866381E0
3.693505070E0,-8.590233326E-1,-3.065803945E-1,9.683454514E0,9.726315024E0
3.695951476E0,-8.685946465E-1,-3.281157911E-1,9.714560509E0,9.758832026E0
3.698397153E0,-8.805587292E-1,-3.281157911E-1,9.750452995E0,9.795630519E0
3.700843612E0,-8.470591903E-1,-3.257229924E-1,9.743274689E0,9.785448707E0
3.703290955E0,-8.252246976E-1,-3.496512175E-1,9.783952713E0,9.824916410E0
3.705737362E0,-8.252246976E-1,-3.209373355E-1,9.800702095E0,9.840617772E0
3.708183091E0,-8.324031830E-1,-3.041875660E-1,9.817452431E0,9.857372741E0
3.710629549E0,-8.324031830E-1,-2.778665423E-1,9.824630737E0,9.863745435E0
3.713076893E0,-8.228318691E-1,-2.515454888E-1,9.807881355E0,9.845550472E0
3.715523299E0,-7.821539044E-1,-2.467598319E-1,9.786345482E0,9.820652373E0
3.717968976E0,-8.108677864E-1,-2.611167729E-1,9.767203331E0,9.804282199E0
3.720415435E0,-8.276175261E-1,-2.563311160E-1,9.769596100E0,9.807938844E0
3.722862778E0,-8.470591903E-1,-2.347957194E-1,9.757631302E0,9.797142794E0
3.725309237E0,-8.108677864E-1,-2.515454888E-1,9.752845764E0,9.789728403E0
3.727754914E0,-8.395816684E-1,-2.539383173E-1,9.700203896E0,9.739781192E0
3.730201372E0,-8.347960114E-1,-2.539383173E-1,9.637990952E0,9.677408673E0
3.732648716E0,-8.685946465E-1,-2.587239444E-1,9.618847847E0,9.661450649E0
3.735095122E0,-8.685946465E-1,-2.706880569E-1,9.621240616E0,9.664160578E0
3.737540799E0,-8.566305041E-1,-2.826521695E-1,9.630811691E0,9.672964484E0
3.739987362E0,-8.662018180E-1,-2.850449979E-1,9.602098465E0,9.645302026E0
3.742434601E0,-8.709874153E-1,-2.778665423E-1,9.570991516E0,9.614557062E0
3.744881060E0,-8.685946465E-1,-2.802593410E-1,9.551849365E0,9.595354514E0
3.747326737E0,-8.542376757E-1,-2.802593410E-1,9.537491798E0,9.579771245E0
3.749773195E0,-8.566305041E-1,-2.874378264E-1,9.494421005E0,9.537319673E0
3.752220539E0,-8.638089895E-1,-2.994019389E-1,9.489635468E0,9.533571671E0
3.754666945E0,-8.781659007E-1,-3.137588799E-1,9.515956879E0,9.561540425E0
3.757112622E0,-8.662018180E-1,-3.161516786E-1,9.549455643E0,9.593870989E0
3.759559185E0,-8.662018180E-1,-3.041875660E-1,9.513564110E0,9.557757987E0
3.762006424E0,-8.781659007E-1,-2.970091105E-1,9.561420441E0,9.606255806E0
3.764452883E0,-8.590233326E-1,-2.922234535E-1,9.585348129E0,9.628198917E0
3.766898560E0,-8.757730722E-1,-2.898306549E-1,9.597312927E0,9.641545297E0
3.769345018E0,-8.733802438E-1,-2.611167729E-1,9.609276772E0,9.652418096E0
3.771792362E0,-8.685946465E-1,-2.491526604E-1,9.661918640E0,9.704081900E0
3.774238768E0,-8.829515576E-1,-2.491526604E-1,9.678668022E0,9.722052005E0
3.776684445E0,-8.829515576E-1,-2.132603228E-1,9.678668022E0,9.721198388E0
3.779131008E0,-8.662018180E-1,-2.395813614E-1,9.702596664E0,9.744130893E0
3.781578247E0,-8.805587292E-1,-2.204387933E-1,9.726525307E0,9.768790687E0
3.784024705E0,-8.685946465E-1,-2.276172489E-1,9.750452995E0,9.791710774E0
3.786470383E0,-8.638089895E-1,-2.324029058E-1,9.757631302E0,9.798548143E0
3.788916841E0,-8.566305041E-1,-2.347957194E-1,9.755238533E0,9.795592054E0
3.791364185E0,-8.300103545E-1,-2.539383173E-1,9.767203331E0,9.805695425E0
3.793810591E0,-8.494520187E-1,-2.467598319E-1,9.783952713E0,9.823858195E0
3.796256268E0,-8.395816684E-1,-2.706880569E-1,9.800702095E0,9.840321690E0
3.798702830E0,-8.470591903E-1,-2.563311160E-1,9.779167175E0,9.819130591E0
3.801150122E0,-8.470591903E-1,-2.778665423E-1,9.807881355E0,9.848312331E0
3.803596528E0,-8.395816684E-1,-2.850449979E-1,9.815059662E0,9.855026342E0
3.806042205E0,-8.422735929E-1,-3.017947674E-1,9.817452431E0,9.858137609E0
3.808488664E0,-8.470591903E-1,-3.065803945E-1,9.798309326E0,9.839632435E0
3.810936008E0,-8.614161611E-1,-3.161516786E-1,9.774381638E0,9.817358407E0
3.813382414E0,-8.662018180E-1,-3.352942765E-1,9.795916557E0,9.839853100E0
3.815828091E0,-8.757730722E-1,-3.472583890E-1,9.771988869E0,9.817297658E0
3.818274653E0,-8.709874153E-1,-3.592225015E-1,9.774381638E0,9.819684123E0
3.820721945E0,-8.542376757E-1,-3.257229924E-1,9.728918076E0,9.771778978E0
3.823168351E0,-8.395816684E-1,-3.400799036E-1,9.724132538E0,9.766232914E0
3.825614028E0,-8.494520187E-1,-3.137588799E-1,9.688240051E0,9.730468060E0
3.828060487E0,-8.300103545E-1,-2.994019389E-1,9.683454514E0,9.723571876E0
3.830507830E0,-8.204390407E-1,-3.209373355E-1,9.645169258E0,9.685319355E0
3.832954237E0,-8.156534433E-1,-3.161516786E-1,9.614062309E0,9.653778354E0
3.835399966E0,-8.252246976E-1,-3.329014480E-1,9.575777054E0,9.617033085E0
3.837846424E0,-7.989036441E-1,-3.352942765E-1,9.570991516E0,9.610127361E0
3.840293768E0,-8.446664214E-1,-3.520440459E-1,9.590133667E0,9.633694002E0
3.842740174E0,-8.300103545E-1,-3.329014480E-1,9.568598747E0,9.610297735E0
3.845185851E0,-8.204390407E-1,-3.161516786E-1,9.568598747E0,9.608910141E0
3.847632310E0,-8.614161611E-1,-3.041875660E-1,9.544670105E0,9.588289487E0
3.850079653E0,-8.324031830E-1,-3.017947674E-1,9.518349648E0,9.559443245E0
3.852526112E0,-8.542376757E-1,-2.754737139E-1,9.539884567E0,9.582014680E0
3.854971789E0,-8.542376757E-1,-2.898306549E-1,9.551849365E0,9.594349906E0
3.857418247E0,-8.614161611E-1,-2.898306549E-1,9.575777054E0,9.618812078E0
3.859865591E0,-8.518448472E-1,-2.970091105E-1,9.530313492E0,9.572916447E0
3.862311997E0,-8.518448472E-1,-2.850449979E-1,9.556634903E0,9.598758303E0
3.864757674E0,-8.662018180E-1,-2.946162820E-1,9.578169823E0,9.621769146E0
3.867204237E0,-8.614161611E-1,-2.970091105E-1,9.570991516E0,9.614267045E0
3.869651476E0,-8.566305041E-1,-2.994019389E-1,9.616455078E0,9.659175203E0
3.872097935E0,-8.614161611E-1,-3.137588799E-1,9.626026154E0,9.669584373E0
3.874543612E0,-8.709874153E-1,-3.329014480E-1,9.645169258E0,9.690135833E0
3.876990070E0,-8.685946465E-1,-3.472583890E-1,9.685847282E0,9.730913761E0
3.879437414E0,-8.901300430E-1,-3.113660514E-1,9.690632820E0,9.736408207E0
3.881883820E0,-8.781659007E-1,-2.970091105E-1,9.716953278E0,9.761074263E0
3.884329497E0,-8.685946465E-1,-2.970091105E-1,9.752845764E0,9.795951795E0
3.886776060E0,-8.638089895E-1,-2.754737139E-1,9.757631302E0,9.799664298E0
3.889223299E0,-8.395816684E-1,-2.659024298E-1,9.779167175E0,9.818742899E0
3.891669758E0,-8.590233326E-1,-2.515454888E-1,9.769596100E0,9.810514980E0
3.894115435E0,-8.470591903E-1,-2.300100774E-1,9.762416840E0,9.801795573E0
3.896561893E0,-8.590233326E-1,-2.587239444E-1,9.779167175E0,9.820232676E0
3.899009237E0,-8.853443861E-1,-2.491526604E-1,9.781559944E0,9.824704915E0
3.901455643E0,-9.044869542E-1,-2.563311160E-1,9.760024071E0,9.805196181E0
3.903901320E0,-8.494520187E-1,-2.682952285E-1,9.719346046E0,9.760083946E0
3.906347883E0,-8.853443861E-1,-3.113660514E-1,9.709774971E0,9.755025038E0
3.908795122E0,-8.781659007E-1,-3.161516786E-1,9.700203896E0,9.745002968E0
3.911241580E0,-8.925228715E-1,-3.592225015E-1,9.669096947E0,9.716844840E0
3.913687258E0,-9.092726111E-1,-3.951148391E-1,9.657133102E0,9.707889172E0
3.916133716E0,-8.997012973E-1,-4.094717801E-1,9.652347565E0,9.702831704E0
3.918581060E0,-9.140582681E-1,-3.999004960E-1,9.642776489E0,9.694254038E0
3.921027466E0,-8.925228715E-1,-4.022932947E-1,9.626026154E0,9.675681706E0
3.923473195E0,-9.164510965E-1,-3.975076675E-1,9.621240616E0,9.672960557E0
3.925919653E0,-9.236295223E-1,-3.951148391E-1,9.654740334E0,9.706864485E0
3.928366997E0,-9.044869542E-1,-4.094717801E-1,9.673882484E0,9.724698767E0
3.930813403E0,-9.092726111E-1,-4.214358926E-1,9.681061745E0,9.732797203E0
3.933259080E0,-9.044869542E-1,-4.549354017E-1,9.704989433E0,9.757657648E0
3.935705539E0,-9.092726111E-1,-4.788636267E-1,9.712167740E0,9.766385681E0
3.938152883E0,-8.925228715E-1,-4.911268353E-1,9.726525307E0,9.779728891E0
3.940599289E0,-8.733802438E-1,-4.692923427E-1,9.738489151E0,9.788830333E0
3.943045018E0,-8.180462122E-1,-4.525425732E-1,9.767203331E0,9.811842604E0
3.945491476E0,-7.749754190E-1,-4.166502357E-1,9.774381638E0,9.813904458E0
3.947938820E0,-7.773682475E-1,-3.855435550E-1,9.795916557E0,9.834273050E0
3.950385226E0,-7.319046259E-1,-3.352942765E-1,9.827023506E0,9.859944098E0
3.952830903E0,-7.462615371E-1,-2.994019389E-1,9.812666893E0,9.845556325E0
3.955277362E0,-7.414759398E-1,-2.682952285E-1,9.822237968E0,9.853838217E0
3.957724705E0,-7.654041648E-1,-2.659024298E-1,9.834201813E0,9.867526181E0
3.960171164E0,-7.917252183E-1,-2.563311160E-1,9.819845200E0,9.855044100E0
3.962616841E0,-8.084749579E-1,-2.778665423E-1,9.817452431E0,9.854603686E0
3.965063299E0,-8.108677864E-1,-2.826521695E-1,9.829416275E0,9.866854774E0
3.967510643E0,-8.204390407E-1,-2.922234535E-1,9.831809044E0,9.870308194E0
3.969957049E0,-8.347960114E-1,-2.922234535E-1,9.781559944E0,9.821465973E0
3.972402726E0,-8.446664214E-1,-3.041875660E-1,9.752845764E0,9.794079433E0
3.974849289E0,-8.542376757E-1,-3.137588799E-1,9.738489151E0,9.780917011E0
